[{"rt":2848,"responses":"{\"Q0\":\"A1JVWOBGNA6KJT\"}","trial_type":"survey-text","trial_index":0,"time_elapsed":2858,"internal_node_id":"0.0-0.0-0.0","participant_id":"A1JVWOBGNA6KJT"},{"rt":2391,"stimulus":"stimuli/ins/Slide1.JPG","button_pressed":"0","Name":"instructions","trial_type":"image-button-response","trial_index":1,"time_elapsed":5250,"internal_node_id":"0.0-1.0","participant_id":"A1JVWOBGNA6KJT"},{"rt":3407,"stimulus":"stimuli/ins/Slide2.JPG","button_pressed":"0","Name":"instructions","trial_type":"image-button-response","trial_index":2,"time_elapsed":8657,"internal_node_id":"0.0-2.0","participant_id":"A1JVWOBGNA6KJT"},{"rt":2999,"stimulus":"stimuli/ins/Slide3.JPG","button_pressed":"0","Name":"instructions","trial_type":"image-button-response","trial_index":3,"time_elapsed":11657,"internal_node_id":"0.0-3.0","participant_id":"A1JVWOBGNA6KJT"},{"rt":3995,"stimulus":"stimuli/ins/Slide4.JPG","button_pressed":"0","Name":"instructions","trial_type":"image-button-response","trial_index":4,"time_elapsed":15653,"internal_node_id":"0.0-4.0","participant_id":"A1JVWOBGNA6KJT"},{"rt":2486,"stimulus":"stimuli/ins/Slide5.JPG","button_pressed":"0","Name":"instructions","trial_type":"image-button-response","trial_index":5,"time_elapsed":18140,"internal_node_id":"0.0-5.0","participant_id":"A1JVWOBGNA6KJT"},{"rt":2588,"stimulus":"stimuli/ins/Slide6.JPG","button_pressed":"0","Name":"instructions","trial_type":"image-button-response","trial_index":6,"time_elapsed":20730,"internal_node_id":"0.0-6.0","participant_id":"A1JVWOBGNA6KJT"},{"rt":977,"stimulus":"stimuli/ins/Slide7.JPG","button_pressed":"0","Name":"instructions","trial_type":"image-button-response","trial_index":7,"time_elapsed":21708,"internal_node_id":"0.0-7.0","participant_id":"A1JVWOBGNA6KJT"},{"rt":5755,"responses":"{\"Q0\":\"but\"}","trial_type":"survey-text","trial_index":8,"time_elapsed":27463,"internal_node_id":"0.0-8.0-0.0","participant_id":"A1JVWOBGNA6KJT"},{"rt":null,"stimulus":"<p style=\"font-size: 48px;\">+</p>","key_press":null,"Name":"fixation","trial_type":"html-keyboard-response","trial_index":9,"time_elapsed":28965,"internal_node_id":"0.0-9.0","participant_id":"A1JVWOBGNA6KJT"},{"rt":null,"stimulus":"stimuli/2.jpg","button_pressed":null,"trial_type":"image-button-response","trial_index":10,"time_elapsed":33966,"internal_node_id":"0.0-10.0","participant_id":"A1JVWOBGNA6KJT"},{"rt":1290,"stimulus":"stimuli/2.jpg","button_pressed":"0","trial_type":"image-button-response","trial_index":11,"time_elapsed":35257,"internal_node_id":"0.0-11.0","participant_id":"A1JVWOBGNA6KJT"},{"rt":3039,"response":"73","trial_type":"image-slider-response","trial_index":12,"time_elapsed":38298,"internal_node_id":"0.0-12.0","participant_id":"A1JVWOBGNA6KJT"},{"rt":1503,"stimulus":"stimuli/2.jpg","button_pressed":"0","trial_type":"image-button-response","trial_index":13,"time_elapsed":39802,"internal_node_id":"0.0-13.0","participant_id":"A1JVWOBGNA6KJT"},{"rt":null,"stimulus":"<p style=\"font-size: 48px;\">+</p>","key_press":null,"Name":"fixation","trial_type":"html-keyboard-response","trial_index":14,"time_elapsed":40305,"internal_node_id":"0.0-14.0","participant_id":"A1JVWOBGNA6KJT"},{"rt":null,"stimulus":"stimuli/16.jpg","button_pressed":null,"trial_type":"image-button-response","trial_index":15,"time_elapsed":45308,"internal_node_id":"0.0-15.0","participant_id":"A1JVWOBGNA6KJT"},{"rt":1193,"stimulus":"stimuli/16.jpg","button_pressed":"0","trial_type":"image-button-response","trial_index":16,"time_elapsed":46502,"internal_node_id":"0.0-16.0","participant_id":"A1JVWOBGNA6KJT"},{"rt":2450,"response":"84","trial_type":"image-slider-response","trial_index":17,"time_elapsed":48952,"internal_node_id":"0.0-17.0","participant_id":"A1JVWOBGNA6KJT"},{"rt":797,"stimulus":"stimuli/16.jpg","button_pressed":"0","trial_type":"image-button-response","trial_index":18,"time_elapsed":49749,"internal_node_id":"0.0-18.0","participant_id":"A1JVWOBGNA6KJT"},{"rt":null,"stimulus":"<p style=\"font-size: 48px;\">+</p>","key_press":null,"Name":"fixation","trial_type":"html-keyboard-response","trial_index":19,"time_elapsed":51251,"internal_node_id":"0.0-19.0","participant_id":"A1JVWOBGNA6KJT"},{"rt":null,"stimulus":"stimuli/43.jpg","button_pressed":null,"trial_type":"image-button-response","trial_index":20,"time_elapsed":56253,"internal_node_id":"0.0-20.0","participant_id":"A1JVWOBGNA6KJT"},{"rt":1121,"stimulus":"stimuli/43.jpg","button_pressed":"0","trial_type":"image-button-response","trial_index":21,"time_elapsed":57375,"internal_node_id":"0.0-21.0","participant_id":"A1JVWOBGNA6KJT"},{"rt":2030,"response":"71","trial_type":"image-slider-response","trial_index":22,"time_elapsed":59405,"internal_node_id":"0.0-22.0","participant_id":"A1JVWOBGNA6KJT"},{"rt":2591,"stimulus":"stimuli/43.jpg","button_pressed":"1","trial_type":"image-button-response","trial_index":23,"time_elapsed":61998,"internal_node_id":"0.0-23.0","participant_id":"A1JVWOBGNA6KJT"},{"rt":null,"stimulus":"<p style=\"font-size: 48px;\">+</p>","key_press":null,"Name":"fixation","trial_type":"html-keyboard-response","trial_index":24,"time_elapsed":63498,"internal_node_id":"0.0-24.0","participant_id":"A1JVWOBGNA6KJT"},{"rt":null,"stimulus":"stimuli/15.jpg","button_pressed":null,"trial_type":"image-button-response","trial_index":25,"time_elapsed":68500,"internal_node_id":"0.0-25.0","participant_id":"A1JVWOBGNA6KJT"},{"rt":1078,"stimulus":"stimuli/15.jpg","button_pressed":"0","trial_type":"image-button-response","trial_index":26,"time_elapsed":69579,"internal_node_id":"0.0-26.0","participant_id":"A1JVWOBGNA6KJT"},{"rt":1942,"response":"78","trial_type":"image-slider-response","trial_index":27,"time_elapsed":71522,"internal_node_id":"0.0-27.0","participant_id":"A1JVWOBGNA6KJT"},{"rt":693,"stimulus":"stimuli/15.jpg","button_pressed":"0","trial_type":"image-button-response","trial_index":28,"time_elapsed":72215,"internal_node_id":"0.0-28.0","participant_id":"A1JVWOBGNA6KJT"},{"rt":null,"stimulus":"<p style=\"font-size: 48px;\">+</p>","key_press":null,"Name":"fixation","trial_type":"html-keyboard-response","trial_index":29,"time_elapsed":73216,"internal_node_id":"0.0-29.0","participant_id":"A1JVWOBGNA6KJT"},{"rt":null,"stimulus":"stimuli/28.jpg","button_pressed":null,"trial_type":"image-button-response","trial_index":30,"time_elapsed":78218,"internal_node_id":"0.0-30.0","participant_id":"A1JVWOBGNA6KJT"},{"rt":1064,"stimulus":"stimuli/28.jpg","button_pressed":"0","trial_type":"image-button-response","trial_index":31,"time_elapsed":79282,"internal_node_id":"0.0-31.0","participant_id":"A1JVWOBGNA6KJT"},{"rt":2064,"response":"72","trial_type":"image-slider-response","trial_index":32,"time_elapsed":81347,"internal_node_id":"0.0-32.0","participant_id":"A1JVWOBGNA6KJT"},{"rt":879,"stimulus":"stimuli/28.jpg","button_pressed":"0","trial_type":"image-button-response","trial_index":33,"time_elapsed":82227,"internal_node_id":"0.0-33.0","participant_id":"A1JVWOBGNA6KJT"},{"rt":4244,"responses":"{\"Q0\":\"rock\"}","trial_type":"survey-text","trial_index":34,"time_elapsed":86471,"internal_node_id":"0.0-34.0-0.0","participant_id":"A1JVWOBGNA6KJT"},{"rt":null,"stimulus":"<p style=\"font-size: 48px;\">+</p>","key_press":null,"Name":"fixation","trial_type":"html-keyboard-response","trial_index":35,"time_elapsed":86973,"internal_node_id":"0.0-35.0","participant_id":"A1JVWOBGNA6KJT"},{"rt":null,"stimulus":"stimuli/71.jpg","button_pressed":null,"trial_type":"image-button-response","trial_index":36,"time_elapsed":91974,"internal_node_id":"0.0-36.0","participant_id":"A1JVWOBGNA6KJT"},{"rt":1008,"stimulus":"stimuli/71.jpg","button_pressed":"0","trial_type":"image-button-response","trial_index":37,"time_elapsed":92984,"internal_node_id":"0.0-37.0","participant_id":"A1JVWOBGNA6KJT"},{"rt":2329,"response":"82","trial_type":"image-slider-response","trial_index":38,"time_elapsed":95313,"internal_node_id":"0.0-38.0","participant_id":"A1JVWOBGNA6KJT"},{"rt":1803,"stimulus":"stimuli/71.jpg","button_pressed":"1","trial_type":"image-button-response","trial_index":39,"time_elapsed":97117,"internal_node_id":"0.0-39.0","participant_id":"A1JVWOBGNA6KJT"},{"rt":null,"stimulus":"<p style=\"font-size: 48px;\">+</p>","key_press":null,"Name":"fixation","trial_type":"html-keyboard-response","trial_index":40,"time_elapsed":98119,"internal_node_id":"0.0-40.0","participant_id":"A1JVWOBGNA6KJT"},{"rt":null,"stimulus":"stimuli/36.jpg","button_pressed":null,"trial_type":"image-button-response","trial_index":41,"time_elapsed":103122,"internal_node_id":"0.0-41.0","participant_id":"A1JVWOBGNA6KJT"},{"rt":1106,"stimulus":"stimuli/36.jpg","button_pressed":"0","trial_type":"image-button-response","trial_index":42,"time_elapsed":104229,"internal_node_id":"0.0-42.0","participant_id":"A1JVWOBGNA6KJT"},{"rt":1469,"response":"82","trial_type":"image-slider-response","trial_index":43,"time_elapsed":105700,"internal_node_id":"0.0-43.0","participant_id":"A1JVWOBGNA6KJT"},{"rt":682,"stimulus":"stimuli/36.jpg","button_pressed":"0","trial_type":"image-button-response","trial_index":44,"time_elapsed":106382,"internal_node_id":"0.0-44.0","participant_id":"A1JVWOBGNA6KJT"},{"rt":null,"stimulus":"<p style=\"font-size: 48px;\">+</p>","key_press":null,"Name":"fixation","trial_type":"html-keyboard-response","trial_index":45,"time_elapsed":107884,"internal_node_id":"0.0-45.0","participant_id":"A1JVWOBGNA6KJT"},{"rt":null,"stimulus":"stimuli/18.jpg","button_pressed":null,"trial_type":"image-button-response","trial_index":46,"time_elapsed":112886,"internal_node_id":"0.0-46.0","participant_id":"A1JVWOBGNA6KJT"},{"rt":974,"stimulus":"stimuli/18.jpg","button_pressed":"0","trial_type":"image-button-response","trial_index":47,"time_elapsed":113862,"internal_node_id":"0.0-47.0","participant_id":"A1JVWOBGNA6KJT"},{"rt":1551,"response":"92","trial_type":"image-slider-response","trial_index":48,"time_elapsed":115413,"internal_node_id":"0.0-48.0","participant_id":"A1JVWOBGNA6KJT"},{"rt":1374,"stimulus":"stimuli/18.jpg","button_pressed":"0","trial_type":"image-button-response","trial_index":49,"time_elapsed":116788,"internal_node_id":"0.0-49.0","participant_id":"A1JVWOBGNA6KJT"},{"rt":null,"stimulus":"<p style=\"font-size: 48px;\">+</p>","key_press":null,"Name":"fixation","trial_type":"html-keyboard-response","trial_index":50,"time_elapsed":117290,"internal_node_id":"0.0-50.0","participant_id":"A1JVWOBGNA6KJT"},{"rt":null,"stimulus":"stimuli/61.jpg","button_pressed":null,"trial_type":"image-button-response","trial_index":51,"time_elapsed":122292,"internal_node_id":"0.0-51.0","participant_id":"A1JVWOBGNA6KJT"},{"rt":1200,"stimulus":"stimuli/61.jpg","button_pressed":"0","trial_type":"image-button-response","trial_index":52,"time_elapsed":123494,"internal_node_id":"0.0-52.0","participant_id":"A1JVWOBGNA6KJT"},{"rt":2610,"response":"77","trial_type":"image-slider-response","trial_index":53,"time_elapsed":126104,"internal_node_id":"0.0-53.0","participant_id":"A1JVWOBGNA6KJT"},{"rt":953,"stimulus":"stimuli/61.jpg","button_pressed":"0","trial_type":"image-button-response","trial_index":54,"time_elapsed":127058,"internal_node_id":"0.0-54.0","participant_id":"A1JVWOBGNA6KJT"},{"rt":null,"stimulus":"<p style=\"font-size: 48px;\">+</p>","key_press":null,"Name":"fixation","trial_type":"html-keyboard-response","trial_index":55,"time_elapsed":128561,"internal_node_id":"0.0-55.0","participant_id":"A1JVWOBGNA6KJT"},{"rt":null,"stimulus":"stimuli/45.jpg","button_pressed":null,"trial_type":"image-button-response","trial_index":56,"time_elapsed":133563,"internal_node_id":"0.0-56.0","participant_id":"A1JVWOBGNA6KJT"},{"rt":955,"stimulus":"stimuli/45.jpg","button_pressed":"0","trial_type":"image-button-response","trial_index":57,"time_elapsed":134519,"internal_node_id":"0.0-57.0","participant_id":"A1JVWOBGNA6KJT"},{"rt":1948,"response":"81","trial_type":"image-slider-response","trial_index":58,"time_elapsed":136468,"internal_node_id":"0.0-58.0","participant_id":"A1JVWOBGNA6KJT"},{"rt":832,"stimulus":"stimuli/45.jpg","button_pressed":"0","trial_type":"image-button-response","trial_index":59,"time_elapsed":137302,"internal_node_id":"0.0-59.0","participant_id":"A1JVWOBGNA6KJT"},{"rt":3465,"responses":"{\"Q0\":\"sky\"}","trial_type":"survey-text","trial_index":60,"time_elapsed":140768,"internal_node_id":"0.0-60.0-0.0","participant_id":"A1JVWOBGNA6KJT"},{"rt":null,"stimulus":"<p style=\"font-size: 48px;\">+</p>","key_press":null,"Name":"fixation","trial_type":"html-keyboard-response","trial_index":61,"time_elapsed":142269,"internal_node_id":"0.0-61.0","participant_id":"A1JVWOBGNA6KJT"},{"rt":null,"stimulus":"stimuli/52.jpg","button_pressed":null,"trial_type":"image-button-response","trial_index":62,"time_elapsed":147271,"internal_node_id":"0.0-62.0","participant_id":"A1JVWOBGNA6KJT"},{"rt":1071,"stimulus":"stimuli/52.jpg","button_pressed":"0","trial_type":"image-button-response","trial_index":63,"time_elapsed":148342,"internal_node_id":"0.0-63.0","participant_id":"A1JVWOBGNA6KJT"},{"rt":1739,"response":"83","trial_type":"image-slider-response","trial_index":64,"time_elapsed":150082,"internal_node_id":"0.0-64.0","participant_id":"A1JVWOBGNA6KJT"},{"rt":812,"stimulus":"stimuli/52.jpg","button_pressed":"0","trial_type":"image-button-response","trial_index":65,"time_elapsed":150895,"internal_node_id":"0.0-65.0","participant_id":"A1JVWOBGNA6KJT"},{"rt":null,"stimulus":"<p style=\"font-size: 48px;\">+</p>","key_press":null,"Name":"fixation","trial_type":"html-keyboard-response","trial_index":66,"time_elapsed":151897,"internal_node_id":"0.0-66.0","participant_id":"A1JVWOBGNA6KJT"},{"rt":null,"stimulus":"stimuli/19.jpg","button_pressed":null,"trial_type":"image-button-response","trial_index":67,"time_elapsed":156898,"internal_node_id":"0.0-67.0","participant_id":"A1JVWOBGNA6KJT"},{"rt":1228,"stimulus":"stimuli/19.jpg","button_pressed":"0","trial_type":"image-button-response","trial_index":68,"time_elapsed":158128,"internal_node_id":"0.0-68.0","participant_id":"A1JVWOBGNA6KJT"},{"rt":2535,"response":"75","trial_type":"image-slider-response","trial_index":69,"time_elapsed":160665,"internal_node_id":"0.0-69.0","participant_id":"A1JVWOBGNA6KJT"},{"rt":602,"stimulus":"stimuli/19.jpg","button_pressed":"0","trial_type":"image-button-response","trial_index":70,"time_elapsed":161267,"internal_node_id":"0.0-70.0","participant_id":"A1JVWOBGNA6KJT"},{"rt":null,"stimulus":"<p style=\"font-size: 48px;\">+</p>","key_press":null,"Name":"fixation","trial_type":"html-keyboard-response","trial_index":71,"time_elapsed":162269,"internal_node_id":"0.0-71.0","participant_id":"A1JVWOBGNA6KJT"},{"rt":null,"stimulus":"stimuli/17.jpg","button_pressed":null,"trial_type":"image-button-response","trial_index":72,"time_elapsed":167269,"internal_node_id":"0.0-72.0","participant_id":"A1JVWOBGNA6KJT"},{"rt":1150,"stimulus":"stimuli/17.jpg","button_pressed":"0","trial_type":"image-button-response","trial_index":73,"time_elapsed":168421,"internal_node_id":"0.0-73.0","participant_id":"A1JVWOBGNA6KJT"},{"rt":1764,"response":"73","trial_type":"image-slider-response","trial_index":74,"time_elapsed":170185,"internal_node_id":"0.0-74.0","participant_id":"A1JVWOBGNA6KJT"},{"rt":838,"stimulus":"stimuli/17.jpg","button_pressed":"0","trial_type":"image-button-response","trial_index":75,"time_elapsed":171024,"internal_node_id":"0.0-75.0","participant_id":"A1JVWOBGNA6KJT"},{"rt":null,"stimulus":"<p style=\"font-size: 48px;\">+</p>","key_press":null,"Name":"fixation","trial_type":"html-keyboard-response","trial_index":76,"time_elapsed":171526,"internal_node_id":"0.0-76.0","participant_id":"A1JVWOBGNA6KJT"},{"rt":null,"stimulus":"stimuli/68.jpg","button_pressed":null,"trial_type":"image-button-response","trial_index":77,"time_elapsed":176528,"internal_node_id":"0.0-77.0","participant_id":"A1JVWOBGNA6KJT"},{"rt":1105,"stimulus":"stimuli/68.jpg","button_pressed":"0","trial_type":"image-button-response","trial_index":78,"time_elapsed":177634,"internal_node_id":"0.0-78.0","participant_id":"A1JVWOBGNA6KJT"},{"rt":2346,"response":"76","trial_type":"image-slider-response","trial_index":79,"time_elapsed":179980,"internal_node_id":"0.0-79.0","participant_id":"A1JVWOBGNA6KJT"},{"rt":1414,"stimulus":"stimuli/68.jpg","button_pressed":"0","trial_type":"image-button-response","trial_index":80,"time_elapsed":181394,"internal_node_id":"0.0-80.0","participant_id":"A1JVWOBGNA6KJT"},{"rt":null,"stimulus":"<p style=\"font-size: 48px;\">+</p>","key_press":null,"Name":"fixation","trial_type":"html-keyboard-response","trial_index":81,"time_elapsed":181896,"internal_node_id":"0.0-81.0","participant_id":"A1JVWOBGNA6KJT"},{"rt":null,"stimulus":"stimuli/57.jpg","button_pressed":null,"trial_type":"image-button-response","trial_index":82,"time_elapsed":186898,"internal_node_id":"0.0-82.0","participant_id":"A1JVWOBGNA6KJT"},{"rt":910,"stimulus":"stimuli/57.jpg","button_pressed":"0","trial_type":"image-button-response","trial_index":83,"time_elapsed":187808,"internal_node_id":"0.0-83.0","participant_id":"A1JVWOBGNA6KJT"},{"rt":2312,"response":"73","trial_type":"image-slider-response","trial_index":84,"time_elapsed":190122,"internal_node_id":"0.0-84.0","participant_id":"A1JVWOBGNA6KJT"},{"rt":2042,"stimulus":"stimuli/57.jpg","button_pressed":"0","trial_type":"image-button-response","trial_index":85,"time_elapsed":192164,"internal_node_id":"0.0-85.0","participant_id":"A1JVWOBGNA6KJT"},{"rt":3401,"responses":"{\"Q0\":\"our\"}","trial_type":"survey-text","trial_index":86,"time_elapsed":195566,"internal_node_id":"0.0-86.0-0.0","participant_id":"A1JVWOBGNA6KJT"},{"rt":null,"stimulus":"<p style=\"font-size: 48px;\">+</p>","key_press":null,"Name":"fixation","trial_type":"html-keyboard-response","trial_index":87,"time_elapsed":196567,"internal_node_id":"0.0-87.0","participant_id":"A1JVWOBGNA6KJT"},{"rt":null,"stimulus":"stimuli/33.jpg","button_pressed":null,"trial_type":"image-button-response","trial_index":88,"time_elapsed":201569,"internal_node_id":"0.0-88.0","participant_id":"A1JVWOBGNA6KJT"},{"rt":1102,"stimulus":"stimuli/33.jpg","button_pressed":"0","trial_type":"image-button-response","trial_index":89,"time_elapsed":202672,"internal_node_id":"0.0-89.0","participant_id":"A1JVWOBGNA6KJT"},{"rt":2083,"response":"88","trial_type":"image-slider-response","trial_index":90,"time_elapsed":204755,"internal_node_id":"0.0-90.0","participant_id":"A1JVWOBGNA6KJT"},{"rt":1157,"stimulus":"stimuli/33.jpg","button_pressed":"0","trial_type":"image-button-response","trial_index":91,"time_elapsed":205913,"internal_node_id":"0.0-91.0","participant_id":"A1JVWOBGNA6KJT"},{"rt":null,"stimulus":"<p style=\"font-size: 48px;\">+</p>","key_press":null,"Name":"fixation","trial_type":"html-keyboard-response","trial_index":92,"time_elapsed":207416,"internal_node_id":"0.0-92.0","participant_id":"A1JVWOBGNA6KJT"},{"rt":null,"stimulus":"stimuli/59.jpg","button_pressed":null,"trial_type":"image-button-response","trial_index":93,"time_elapsed":212417,"internal_node_id":"0.0-93.0","participant_id":"A1JVWOBGNA6KJT"},{"rt":855,"stimulus":"stimuli/59.jpg","button_pressed":"0","trial_type":"image-button-response","trial_index":94,"time_elapsed":213272,"internal_node_id":"0.0-94.0","participant_id":"A1JVWOBGNA6KJT"},{"rt":1569,"response":"76","trial_type":"image-slider-response","trial_index":95,"time_elapsed":214842,"internal_node_id":"0.0-95.0","participant_id":"A1JVWOBGNA6KJT"},{"rt":863,"stimulus":"stimuli/59.jpg","button_pressed":"0","trial_type":"image-button-response","trial_index":96,"time_elapsed":215706,"internal_node_id":"0.0-96.0","participant_id":"A1JVWOBGNA6KJT"},{"rt":null,"stimulus":"<p style=\"font-size: 48px;\">+</p>","key_press":null,"Name":"fixation","trial_type":"html-keyboard-response","trial_index":97,"time_elapsed":217207,"internal_node_id":"0.0-97.0","participant_id":"A1JVWOBGNA6KJT"},{"rt":null,"stimulus":"stimuli/46.jpg","button_pressed":null,"trial_type":"image-button-response","trial_index":98,"time_elapsed":222210,"internal_node_id":"0.0-98.0","participant_id":"A1JVWOBGNA6KJT"},{"rt":945,"stimulus":"stimuli/46.jpg","button_pressed":"0","trial_type":"image-button-response","trial_index":99,"time_elapsed":223156,"internal_node_id":"0.0-99.0","participant_id":"A1JVWOBGNA6KJT"},{"rt":1614,"response":"79","trial_type":"image-slider-response","trial_index":100,"time_elapsed":224771,"internal_node_id":"0.0-100.0","participant_id":"A1JVWOBGNA6KJT"},{"rt":716,"stimulus":"stimuli/46.jpg","button_pressed":"0","trial_type":"image-button-response","trial_index":101,"time_elapsed":225488,"internal_node_id":"0.0-101.0","participant_id":"A1JVWOBGNA6KJT"},{"rt":null,"stimulus":"<p style=\"font-size: 48px;\">+</p>","key_press":null,"Name":"fixation","trial_type":"html-keyboard-response","trial_index":102,"time_elapsed":226489,"internal_node_id":"0.0-102.0","participant_id":"A1JVWOBGNA6KJT"},{"rt":null,"stimulus":"stimuli/70.jpg","button_pressed":null,"trial_type":"image-button-response","trial_index":103,"time_elapsed":231490,"internal_node_id":"0.0-103.0","participant_id":"A1JVWOBGNA6KJT"},{"rt":1058,"stimulus":"stimuli/70.jpg","button_pressed":"0","trial_type":"image-button-response","trial_index":104,"time_elapsed":232549,"internal_node_id":"0.0-104.0","participant_id":"A1JVWOBGNA6KJT"},{"rt":2078,"response":"76","trial_type":"image-slider-response","trial_index":105,"time_elapsed":234628,"internal_node_id":"0.0-105.0","participant_id":"A1JVWOBGNA6KJT"},{"rt":692,"stimulus":"stimuli/70.jpg","button_pressed":"0","trial_type":"image-button-response","trial_index":106,"time_elapsed":235321,"internal_node_id":"0.0-106.0","participant_id":"A1JVWOBGNA6KJT"},{"rt":null,"stimulus":"<p style=\"font-size: 48px;\">+</p>","key_press":null,"Name":"fixation","trial_type":"html-keyboard-response","trial_index":107,"time_elapsed":235821,"internal_node_id":"0.0-107.0","participant_id":"A1JVWOBGNA6KJT"},{"rt":null,"stimulus":"stimuli/13.jpg","button_pressed":null,"trial_type":"image-button-response","trial_index":108,"time_elapsed":240824,"internal_node_id":"0.0-108.0","participant_id":"A1JVWOBGNA6KJT"},{"rt":1039,"stimulus":"stimuli/13.jpg","button_pressed":"0","trial_type":"image-button-response","trial_index":109,"time_elapsed":241864,"internal_node_id":"0.0-109.0","participant_id":"A1JVWOBGNA6KJT"},{"rt":1645,"response":"80","trial_type":"image-slider-response","trial_index":110,"time_elapsed":243510,"internal_node_id":"0.0-110.0","participant_id":"A1JVWOBGNA6KJT"},{"rt":601,"stimulus":"stimuli/13.jpg","button_pressed":"0","trial_type":"image-button-response","trial_index":111,"time_elapsed":244112,"internal_node_id":"0.0-111.0","participant_id":"A1JVWOBGNA6KJT"},{"rt":3672,"responses":"{\"Q0\":\"course\"}","trial_type":"survey-text","trial_index":112,"time_elapsed":247785,"internal_node_id":"0.0-112.0-0.0","participant_id":"A1JVWOBGNA6KJT"},{"rt":null,"stimulus":"<p style=\"font-size: 48px;\">+</p>","key_press":null,"Name":"fixation","trial_type":"html-keyboard-response","trial_index":113,"time_elapsed":248787,"internal_node_id":"0.0-113.0","participant_id":"A1JVWOBGNA6KJT"},{"rt":null,"stimulus":"stimuli/11.jpg","button_pressed":null,"trial_type":"image-button-response","trial_index":114,"time_elapsed":253788,"internal_node_id":"0.0-114.0","participant_id":"A1JVWOBGNA6KJT"},{"rt":990,"stimulus":"stimuli/11.jpg","button_pressed":"0","trial_type":"image-button-response","trial_index":115,"time_elapsed":254778,"internal_node_id":"0.0-115.0","participant_id":"A1JVWOBGNA6KJT"},{"rt":1555,"response":"88","trial_type":"image-slider-response","trial_index":116,"time_elapsed":256334,"internal_node_id":"0.0-116.0","participant_id":"A1JVWOBGNA6KJT"},{"rt":748,"stimulus":"stimuli/11.jpg","button_pressed":"0","trial_type":"image-button-response","trial_index":117,"time_elapsed":257083,"internal_node_id":"0.0-117.0","participant_id":"A1JVWOBGNA6KJT"},{"rt":null,"stimulus":"<p style=\"font-size: 48px;\">+</p>","key_press":null,"Name":"fixation","trial_type":"html-keyboard-response","trial_index":118,"time_elapsed":258586,"internal_node_id":"0.0-118.0","participant_id":"A1JVWOBGNA6KJT"},{"rt":null,"stimulus":"stimuli/39.jpg","button_pressed":null,"trial_type":"image-button-response","trial_index":119,"time_elapsed":263590,"internal_node_id":"0.0-119.0","participant_id":"A1JVWOBGNA6KJT"},{"rt":1070,"stimulus":"stimuli/39.jpg","button_pressed":"0","trial_type":"image-button-response","trial_index":120,"time_elapsed":264662,"internal_node_id":"0.0-120.0","participant_id":"A1JVWOBGNA6KJT"},{"rt":1954,"response":"82","trial_type":"image-slider-response","trial_index":121,"time_elapsed":266616,"internal_node_id":"0.0-121.0","participant_id":"A1JVWOBGNA6KJT"},{"rt":722,"stimulus":"stimuli/39.jpg","button_pressed":"0","trial_type":"image-button-response","trial_index":122,"time_elapsed":267340,"internal_node_id":"0.0-122.0","participant_id":"A1JVWOBGNA6KJT"},{"rt":null,"stimulus":"<p style=\"font-size: 48px;\">+</p>","key_press":null,"Name":"fixation","trial_type":"html-keyboard-response","trial_index":123,"time_elapsed":267841,"internal_node_id":"0.0-123.0","participant_id":"A1JVWOBGNA6KJT"},{"rt":null,"stimulus":"stimuli/21.jpg","button_pressed":null,"trial_type":"image-button-response","trial_index":124,"time_elapsed":272842,"internal_node_id":"0.0-124.0","participant_id":"A1JVWOBGNA6KJT"},{"rt":1278,"stimulus":"stimuli/21.jpg","button_pressed":"0","trial_type":"image-button-response","trial_index":125,"time_elapsed":274122,"internal_node_id":"0.0-125.0","participant_id":"A1JVWOBGNA6KJT"},{"rt":1793,"response":"81","trial_type":"image-slider-response","trial_index":126,"time_elapsed":275916,"internal_node_id":"0.0-126.0","participant_id":"A1JVWOBGNA6KJT"},{"rt":694,"stimulus":"stimuli/21.jpg","button_pressed":"0","trial_type":"image-button-response","trial_index":127,"time_elapsed":276612,"internal_node_id":"0.0-127.0","participant_id":"A1JVWOBGNA6KJT"},{"rt":null,"stimulus":"<p style=\"font-size: 48px;\">+</p>","key_press":null,"Name":"fixation","trial_type":"html-keyboard-response","trial_index":128,"time_elapsed":278113,"internal_node_id":"0.0-128.0","participant_id":"A1JVWOBGNA6KJT"},{"rt":null,"stimulus":"stimuli/30.jpg","button_pressed":null,"trial_type":"image-button-response","trial_index":129,"time_elapsed":283114,"internal_node_id":"0.0-129.0","participant_id":"A1JVWOBGNA6KJT"},{"rt":1087,"stimulus":"stimuli/30.jpg","button_pressed":"0","trial_type":"image-button-response","trial_index":130,"time_elapsed":284202,"internal_node_id":"0.0-130.0","participant_id":"A1JVWOBGNA6KJT"},{"rt":1662,"response":"66","trial_type":"image-slider-response","trial_index":131,"time_elapsed":285865,"internal_node_id":"0.0-131.0","participant_id":"A1JVWOBGNA6KJT"},{"rt":623,"stimulus":"stimuli/30.jpg","button_pressed":"0","trial_type":"image-button-response","trial_index":132,"time_elapsed":286488,"internal_node_id":"0.0-132.0","participant_id":"A1JVWOBGNA6KJT"},{"rt":null,"stimulus":"<p style=\"font-size: 48px;\">+</p>","key_press":null,"Name":"fixation","trial_type":"html-keyboard-response","trial_index":133,"time_elapsed":286989,"internal_node_id":"0.0-133.0","participant_id":"A1JVWOBGNA6KJT"},{"rt":null,"stimulus":"stimuli/55.jpg","button_pressed":null,"trial_type":"image-button-response","trial_index":134,"time_elapsed":291991,"internal_node_id":"0.0-134.0","participant_id":"A1JVWOBGNA6KJT"},{"rt":1228,"stimulus":"stimuli/55.jpg","button_pressed":"0","trial_type":"image-button-response","trial_index":135,"time_elapsed":293219,"internal_node_id":"0.0-135.0","participant_id":"A1JVWOBGNA6KJT"},{"rt":2622,"response":"77","trial_type":"image-slider-response","trial_index":136,"time_elapsed":295842,"internal_node_id":"0.0-136.0","participant_id":"A1JVWOBGNA6KJT"},{"rt":975,"stimulus":"stimuli/55.jpg","button_pressed":"0","trial_type":"image-button-response","trial_index":137,"time_elapsed":296817,"internal_node_id":"0.0-137.0","participant_id":"A1JVWOBGNA6KJT"},{"rt":2580,"responses":"{\"Q0\":\"we\"}","trial_type":"survey-text","trial_index":138,"time_elapsed":299399,"internal_node_id":"0.0-138.0-0.0","participant_id":"A1JVWOBGNA6KJT"},{"rt":null,"stimulus":"<p style=\"font-size: 48px;\">+</p>","key_press":null,"Name":"fixation","trial_type":"html-keyboard-response","trial_index":139,"time_elapsed":300902,"internal_node_id":"0.0-139.0","participant_id":"A1JVWOBGNA6KJT"},{"rt":null,"stimulus":"stimuli/38.jpg","button_pressed":null,"trial_type":"image-button-response","trial_index":140,"time_elapsed":305904,"internal_node_id":"0.0-140.0","participant_id":"A1JVWOBGNA6KJT"},{"rt":1151,"stimulus":"stimuli/38.jpg","button_pressed":"0","trial_type":"image-button-response","trial_index":141,"time_elapsed":307057,"internal_node_id":"0.0-141.0","participant_id":"A1JVWOBGNA6KJT"},{"rt":1770,"response":"81","trial_type":"image-slider-response","trial_index":142,"time_elapsed":308828,"internal_node_id":"0.0-142.0","participant_id":"A1JVWOBGNA6KJT"},{"rt":993,"stimulus":"stimuli/38.jpg","button_pressed":"0","trial_type":"image-button-response","trial_index":143,"time_elapsed":309823,"internal_node_id":"0.0-143.0","participant_id":"A1JVWOBGNA6KJT"},{"rt":null,"stimulus":"<p style=\"font-size: 48px;\">+</p>","key_press":null,"Name":"fixation","trial_type":"html-keyboard-response","trial_index":144,"time_elapsed":311324,"internal_node_id":"0.0-144.0","participant_id":"A1JVWOBGNA6KJT"},{"rt":null,"stimulus":"stimuli/20.jpg","button_pressed":null,"trial_type":"image-button-response","trial_index":145,"time_elapsed":316329,"internal_node_id":"0.0-145.0","participant_id":"A1JVWOBGNA6KJT"},{"rt":1103,"stimulus":"stimuli/20.jpg","button_pressed":"0","trial_type":"image-button-response","trial_index":146,"time_elapsed":317433,"internal_node_id":"0.0-146.0","participant_id":"A1JVWOBGNA6KJT"},{"rt":1370,"response":"84","trial_type":"image-slider-response","trial_index":147,"time_elapsed":318804,"internal_node_id":"0.0-147.0","participant_id":"A1JVWOBGNA6KJT"},{"rt":635,"stimulus":"stimuli/20.jpg","button_pressed":"0","trial_type":"image-button-response","trial_index":148,"time_elapsed":319441,"internal_node_id":"0.0-148.0","participant_id":"A1JVWOBGNA6KJT"},{"rt":null,"stimulus":"<p style=\"font-size: 48px;\">+</p>","key_press":null,"Name":"fixation","trial_type":"html-keyboard-response","trial_index":149,"time_elapsed":320443,"internal_node_id":"0.0-149.0","participant_id":"A1JVWOBGNA6KJT"},{"rt":null,"stimulus":"stimuli/8.jpg","button_pressed":null,"trial_type":"image-button-response","trial_index":150,"time_elapsed":325446,"internal_node_id":"0.0-150.0","participant_id":"A1JVWOBGNA6KJT"},{"rt":938,"stimulus":"stimuli/8.jpg","button_pressed":"0","trial_type":"image-button-response","trial_index":151,"time_elapsed":326386,"internal_node_id":"0.0-151.0","participant_id":"A1JVWOBGNA6KJT"},{"rt":1699,"response":"80","trial_type":"image-slider-response","trial_index":152,"time_elapsed":328086,"internal_node_id":"0.0-152.0","participant_id":"A1JVWOBGNA6KJT"},{"rt":762,"stimulus":"stimuli/8.jpg","button_pressed":"0","trial_type":"image-button-response","trial_index":153,"time_elapsed":328850,"internal_node_id":"0.0-153.0","participant_id":"A1JVWOBGNA6KJT"},{"rt":null,"stimulus":"<p style=\"font-size: 48px;\">+</p>","key_press":null,"Name":"fixation","trial_type":"html-keyboard-response","trial_index":154,"time_elapsed":329851,"internal_node_id":"0.0-154.0","participant_id":"A1JVWOBGNA6KJT"},{"rt":null,"stimulus":"stimuli/49.jpg","button_pressed":null,"trial_type":"image-button-response","trial_index":155,"time_elapsed":334853,"internal_node_id":"0.0-155.0","participant_id":"A1JVWOBGNA6KJT"},{"rt":1019,"stimulus":"stimuli/49.jpg","button_pressed":"0","trial_type":"image-button-response","trial_index":156,"time_elapsed":335872,"internal_node_id":"0.0-156.0","participant_id":"A1JVWOBGNA6KJT"},{"rt":1788,"response":"89","trial_type":"image-slider-response","trial_index":157,"time_elapsed":337662,"internal_node_id":"0.0-157.0","participant_id":"A1JVWOBGNA6KJT"},{"rt":678,"stimulus":"stimuli/49.jpg","button_pressed":"0","trial_type":"image-button-response","trial_index":158,"time_elapsed":338341,"internal_node_id":"0.0-158.0","participant_id":"A1JVWOBGNA6KJT"},{"rt":null,"stimulus":"<p style=\"font-size: 48px;\">+</p>","key_press":null,"Name":"fixation","trial_type":"html-keyboard-response","trial_index":159,"time_elapsed":339843,"internal_node_id":"0.0-159.0","participant_id":"A1JVWOBGNA6KJT"},{"rt":null,"stimulus":"stimuli/1.jpg","button_pressed":null,"trial_type":"image-button-response","trial_index":160,"time_elapsed":344846,"internal_node_id":"0.0-160.0","participant_id":"A1JVWOBGNA6KJT"},{"rt":945,"stimulus":"stimuli/1.jpg","button_pressed":"0","trial_type":"image-button-response","trial_index":161,"time_elapsed":345792,"internal_node_id":"0.0-161.0","participant_id":"A1JVWOBGNA6KJT"},{"rt":1673,"response":"92","trial_type":"image-slider-response","trial_index":162,"time_elapsed":347467,"internal_node_id":"0.0-162.0","participant_id":"A1JVWOBGNA6KJT"},{"rt":682,"stimulus":"stimuli/1.jpg","button_pressed":"0","trial_type":"image-button-response","trial_index":163,"time_elapsed":348150,"internal_node_id":"0.0-163.0","participant_id":"A1JVWOBGNA6KJT"},{"rt":3031,"stimulus":"stimuli/ins/Slide8.JPG","button_pressed":"0","trial_type":"image-button-response","trial_index":164,"time_elapsed":351182,"internal_node_id":"0.0-164.0","participant_id":"A1JVWOBGNA6KJT"}]