[{"rt":9298,"responses":"{\"Q0\":\"A21STU4Z97J2Z6\"}","trial_type":"survey-text","trial_index":0,"time_elapsed":9306,"internal_node_id":"0.0-0.0-0.0","participant_id":"A21STU4Z97J2Z6"},{"rt":121620,"stimulus":"stimuli/ins/Slide1.JPG","button_pressed":"0","Name":"instructions","trial_type":"image-button-response","trial_index":1,"time_elapsed":130942,"internal_node_id":"0.0-1.0","participant_id":"A21STU4Z97J2Z6"},{"rt":4905,"stimulus":"stimuli/ins/Slide2.JPG","button_pressed":"0","Name":"instructions","trial_type":"image-button-response","trial_index":2,"time_elapsed":135850,"internal_node_id":"0.0-2.0","participant_id":"A21STU4Z97J2Z6"},{"rt":3327,"stimulus":"stimuli/ins/Slide3.JPG","button_pressed":"0","Name":"instructions","trial_type":"image-button-response","trial_index":3,"time_elapsed":139181,"internal_node_id":"0.0-3.0","participant_id":"A21STU4Z97J2Z6"},{"rt":7308,"stimulus":"stimuli/ins/Slide4.JPG","button_pressed":"0","Name":"instructions","trial_type":"image-button-response","trial_index":4,"time_elapsed":146492,"internal_node_id":"0.0-4.0","participant_id":"A21STU4Z97J2Z6"},{"rt":2808,"stimulus":"stimuli/ins/Slide5.JPG","button_pressed":"0","Name":"instructions","trial_type":"image-button-response","trial_index":5,"time_elapsed":149304,"internal_node_id":"0.0-5.0","participant_id":"A21STU4Z97J2Z6"},{"rt":3692,"stimulus":"stimuli/ins/Slide6.JPG","button_pressed":"0","Name":"instructions","trial_type":"image-button-response","trial_index":6,"time_elapsed":152999,"internal_node_id":"0.0-6.0","participant_id":"A21STU4Z97J2Z6"},{"rt":910,"stimulus":"stimuli/ins/Slide7.JPG","button_pressed":"0","Name":"instructions","trial_type":"image-button-response","trial_index":7,"time_elapsed":153914,"internal_node_id":"0.0-7.0","participant_id":"A21STU4Z97J2Z6"},{"rt":5029,"responses":"{\"Q0\":\"but\"}","trial_type":"survey-text","trial_index":8,"time_elapsed":158949,"internal_node_id":"0.0-8.0-0.0","participant_id":"A21STU4Z97J2Z6"},{"rt":null,"stimulus":"<p style=\"font-size: 48px;\">+</p>","key_press":null,"Name":"fixation","trial_type":"html-keyboard-response","trial_index":9,"time_elapsed":160455,"internal_node_id":"0.0-9.0","participant_id":"A21STU4Z97J2Z6"},{"rt":null,"stimulus":"stimuli/58.jpg","button_pressed":null,"trial_type":"image-button-response","trial_index":10,"time_elapsed":165458,"internal_node_id":"0.0-10.0","participant_id":"A21STU4Z97J2Z6"},{"rt":1792,"stimulus":"stimuli/58.jpg","button_pressed":"0","trial_type":"image-button-response","trial_index":11,"time_elapsed":167256,"internal_node_id":"0.0-11.0","participant_id":"A21STU4Z97J2Z6"},{"rt":4175,"response":"18","trial_type":"image-slider-response","trial_index":12,"time_elapsed":171446,"internal_node_id":"0.0-12.0","participant_id":"A21STU4Z97J2Z6"},{"rt":4832,"stimulus":"stimuli/58.jpg","button_pressed":"0","trial_type":"image-button-response","trial_index":13,"time_elapsed":176285,"internal_node_id":"0.0-13.0","participant_id":"A21STU4Z97J2Z6"},{"rt":null,"stimulus":"<p style=\"font-size: 48px;\">+</p>","key_press":null,"Name":"fixation","trial_type":"html-keyboard-response","trial_index":14,"time_elapsed":176788,"internal_node_id":"0.0-14.0","participant_id":"A21STU4Z97J2Z6"},{"rt":null,"stimulus":"stimuli/24.jpg","button_pressed":null,"trial_type":"image-button-response","trial_index":15,"time_elapsed":181793,"internal_node_id":"0.0-15.0","participant_id":"A21STU4Z97J2Z6"},{"rt":1379,"stimulus":"stimuli/24.jpg","button_pressed":"0","trial_type":"image-button-response","trial_index":16,"time_elapsed":183176,"internal_node_id":"0.0-16.0","participant_id":"A21STU4Z97J2Z6"},{"rt":2581,"response":"33","trial_type":"image-slider-response","trial_index":17,"time_elapsed":185762,"internal_node_id":"0.0-17.0","participant_id":"A21STU4Z97J2Z6"},{"rt":1178,"stimulus":"stimuli/24.jpg","button_pressed":"1","trial_type":"image-button-response","trial_index":18,"time_elapsed":186945,"internal_node_id":"0.0-18.0","participant_id":"A21STU4Z97J2Z6"},{"rt":null,"stimulus":"<p style=\"font-size: 48px;\">+</p>","key_press":null,"Name":"fixation","trial_type":"html-keyboard-response","trial_index":19,"time_elapsed":187952,"internal_node_id":"0.0-19.0","participant_id":"A21STU4Z97J2Z6"},{"rt":null,"stimulus":"stimuli/71.jpg","button_pressed":null,"trial_type":"image-button-response","trial_index":20,"time_elapsed":192959,"internal_node_id":"0.0-20.0","participant_id":"A21STU4Z97J2Z6"},{"rt":8418,"stimulus":"stimuli/71.jpg","button_pressed":"0","trial_type":"image-button-response","trial_index":21,"time_elapsed":201382,"internal_node_id":"0.0-21.0","participant_id":"A21STU4Z97J2Z6"},{"rt":3500,"response":"24","trial_type":"image-slider-response","trial_index":22,"time_elapsed":204887,"internal_node_id":"0.0-22.0","participant_id":"A21STU4Z97J2Z6"},{"rt":1355,"stimulus":"stimuli/71.jpg","button_pressed":"0","trial_type":"image-button-response","trial_index":23,"time_elapsed":206253,"internal_node_id":"0.0-23.0","participant_id":"A21STU4Z97J2Z6"},{"rt":null,"stimulus":"<p style=\"font-size: 48px;\">+</p>","key_press":null,"Name":"fixation","trial_type":"html-keyboard-response","trial_index":24,"time_elapsed":207758,"internal_node_id":"0.0-24.0","participant_id":"A21STU4Z97J2Z6"},{"rt":null,"stimulus":"stimuli/18.jpg","button_pressed":null,"trial_type":"image-button-response","trial_index":25,"time_elapsed":212763,"internal_node_id":"0.0-25.0","participant_id":"A21STU4Z97J2Z6"},{"rt":2165,"stimulus":"stimuli/18.jpg","button_pressed":"1","trial_type":"image-button-response","trial_index":26,"time_elapsed":214932,"internal_node_id":"0.0-26.0","participant_id":"A21STU4Z97J2Z6"},{"rt":2949,"response":"7","trial_type":"image-slider-response","trial_index":27,"time_elapsed":217890,"internal_node_id":"0.0-27.0","participant_id":"A21STU4Z97J2Z6"},{"rt":3640,"stimulus":"stimuli/18.jpg","button_pressed":"7","trial_type":"image-button-response","trial_index":28,"time_elapsed":221540,"internal_node_id":"0.0-28.0","participant_id":"A21STU4Z97J2Z6"},{"rt":null,"stimulus":"<p style=\"font-size: 48px;\">+</p>","key_press":null,"Name":"fixation","trial_type":"html-keyboard-response","trial_index":29,"time_elapsed":222044,"internal_node_id":"0.0-29.0","participant_id":"A21STU4Z97J2Z6"},{"rt":null,"stimulus":"stimuli/32.jpg","button_pressed":null,"trial_type":"image-button-response","trial_index":30,"time_elapsed":227047,"internal_node_id":"0.0-30.0","participant_id":"A21STU4Z97J2Z6"},{"rt":1081,"stimulus":"stimuli/32.jpg","button_pressed":"2","trial_type":"image-button-response","trial_index":31,"time_elapsed":228131,"internal_node_id":"0.0-31.0","participant_id":"A21STU4Z97J2Z6"},{"rt":3620,"response":"11","trial_type":"image-slider-response","trial_index":32,"time_elapsed":231759,"internal_node_id":"0.0-32.0","participant_id":"A21STU4Z97J2Z6"},{"rt":2620,"stimulus":"stimuli/32.jpg","button_pressed":"2","trial_type":"image-button-response","trial_index":33,"time_elapsed":234385,"internal_node_id":"0.0-33.0","participant_id":"A21STU4Z97J2Z6"},{"rt":5097,"responses":"{\"Q0\":\"rock\"}","trial_type":"survey-text","trial_index":34,"time_elapsed":239486,"internal_node_id":"0.0-34.0-0.0","participant_id":"A21STU4Z97J2Z6"},{"rt":null,"stimulus":"<p style=\"font-size: 48px;\">+</p>","key_press":null,"Name":"fixation","trial_type":"html-keyboard-response","trial_index":35,"time_elapsed":239989,"internal_node_id":"0.0-35.0","participant_id":"A21STU4Z97J2Z6"},{"rt":null,"stimulus":"stimuli/28.jpg","button_pressed":null,"trial_type":"image-button-response","trial_index":36,"time_elapsed":245026,"internal_node_id":"0.0-36.0","participant_id":"A21STU4Z97J2Z6"},{"rt":3611,"stimulus":"stimuli/28.jpg","button_pressed":"0","trial_type":"image-button-response","trial_index":37,"time_elapsed":248640,"internal_node_id":"0.0-37.0","participant_id":"A21STU4Z97J2Z6"},{"rt":2604,"response":"40","trial_type":"image-slider-response","trial_index":38,"time_elapsed":251252,"internal_node_id":"0.0-38.0","participant_id":"A21STU4Z97J2Z6"},{"rt":1452,"stimulus":"stimuli/28.jpg","button_pressed":"0","trial_type":"image-button-response","trial_index":39,"time_elapsed":252711,"internal_node_id":"0.0-39.0","participant_id":"A21STU4Z97J2Z6"},{"rt":null,"stimulus":"<p style=\"font-size: 48px;\">+</p>","key_press":null,"Name":"fixation","trial_type":"html-keyboard-response","trial_index":40,"time_elapsed":254215,"internal_node_id":"0.0-40.0","participant_id":"A21STU4Z97J2Z6"},{"rt":null,"stimulus":"stimuli/26.jpg","button_pressed":null,"trial_type":"image-button-response","trial_index":41,"time_elapsed":260061,"internal_node_id":"0.0-41.0","participant_id":"A21STU4Z97J2Z6"},{"rt":22260,"stimulus":"stimuli/26.jpg","button_pressed":"0","trial_type":"image-button-response","trial_index":42,"time_elapsed":282346,"internal_node_id":"0.0-42.0","participant_id":"A21STU4Z97J2Z6"},{"rt":2414,"response":"26","trial_type":"image-slider-response","trial_index":43,"time_elapsed":284773,"internal_node_id":"0.0-43.0","participant_id":"A21STU4Z97J2Z6"},{"rt":1636,"stimulus":"stimuli/26.jpg","button_pressed":"0","trial_type":"image-button-response","trial_index":44,"time_elapsed":286420,"internal_node_id":"0.0-44.0","participant_id":"A21STU4Z97J2Z6"},{"rt":null,"stimulus":"<p style=\"font-size: 48px;\">+</p>","key_press":null,"Name":"fixation","trial_type":"html-keyboard-response","trial_index":45,"time_elapsed":288021,"internal_node_id":"0.0-45.0","participant_id":"A21STU4Z97J2Z6"},{"rt":null,"stimulus":"stimuli/27.jpg","button_pressed":null,"trial_type":"image-button-response","trial_index":46,"time_elapsed":293030,"internal_node_id":"0.0-46.0","participant_id":"A21STU4Z97J2Z6"},{"rt":1515,"stimulus":"stimuli/27.jpg","button_pressed":"0","trial_type":"image-button-response","trial_index":47,"time_elapsed":294554,"internal_node_id":"0.0-47.0","participant_id":"A21STU4Z97J2Z6"},{"rt":2257,"response":"38","trial_type":"image-slider-response","trial_index":48,"time_elapsed":296817,"internal_node_id":"0.0-48.0","participant_id":"A21STU4Z97J2Z6"},{"rt":999,"stimulus":"stimuli/27.jpg","button_pressed":"0","trial_type":"image-button-response","trial_index":49,"time_elapsed":297824,"internal_node_id":"0.0-49.0","participant_id":"A21STU4Z97J2Z6"},{"rt":null,"stimulus":"<p style=\"font-size: 48px;\">+</p>","key_press":null,"Name":"fixation","trial_type":"html-keyboard-response","trial_index":50,"time_elapsed":299328,"internal_node_id":"0.0-50.0","participant_id":"A21STU4Z97J2Z6"},{"rt":null,"stimulus":"stimuli/50.jpg","button_pressed":null,"trial_type":"image-button-response","trial_index":51,"time_elapsed":304330,"internal_node_id":"0.0-51.0","participant_id":"A21STU4Z97J2Z6"},{"rt":60112,"stimulus":"stimuli/50.jpg","button_pressed":"1","trial_type":"image-button-response","trial_index":52,"time_elapsed":364443,"internal_node_id":"0.0-52.0","participant_id":"A21STU4Z97J2Z6"},{"rt":2833,"response":"14","trial_type":"image-slider-response","trial_index":53,"time_elapsed":367281,"internal_node_id":"0.0-53.0","participant_id":"A21STU4Z97J2Z6"},{"rt":1057,"stimulus":"stimuli/50.jpg","button_pressed":"7","trial_type":"image-button-response","trial_index":54,"time_elapsed":368343,"internal_node_id":"0.0-54.0","participant_id":"A21STU4Z97J2Z6"},{"rt":null,"stimulus":"<p style=\"font-size: 48px;\">+</p>","key_press":null,"Name":"fixation","trial_type":"html-keyboard-response","trial_index":55,"time_elapsed":370017,"internal_node_id":"0.0-55.0","participant_id":"A21STU4Z97J2Z6"},{"rt":null,"stimulus":"stimuli/42.jpg","button_pressed":null,"trial_type":"image-button-response","trial_index":56,"time_elapsed":376028,"internal_node_id":"0.0-56.0","participant_id":"A21STU4Z97J2Z6"},{"rt":2834,"stimulus":"stimuli/42.jpg","button_pressed":"0","trial_type":"image-button-response","trial_index":57,"time_elapsed":378869,"internal_node_id":"0.0-57.0","participant_id":"A21STU4Z97J2Z6"},{"rt":12288,"response":"47","trial_type":"image-slider-response","trial_index":58,"time_elapsed":391162,"internal_node_id":"0.0-58.0","participant_id":"A21STU4Z97J2Z6"},{"rt":1282,"stimulus":"stimuli/42.jpg","button_pressed":"0","trial_type":"image-button-response","trial_index":59,"time_elapsed":392454,"internal_node_id":"0.0-59.0","participant_id":"A21STU4Z97J2Z6"},{"rt":4264,"responses":"{\"Q0\":\"sky\"}","trial_type":"survey-text","trial_index":60,"time_elapsed":396724,"internal_node_id":"0.0-60.0-0.0","participant_id":"A21STU4Z97J2Z6"},{"rt":null,"stimulus":"<p style=\"font-size: 48px;\">+</p>","key_press":null,"Name":"fixation","trial_type":"html-keyboard-response","trial_index":61,"time_elapsed":397729,"internal_node_id":"0.0-61.0","participant_id":"A21STU4Z97J2Z6"},{"rt":null,"stimulus":"stimuli/25.jpg","button_pressed":null,"trial_type":"image-button-response","trial_index":62,"time_elapsed":403025,"internal_node_id":"0.0-62.0","participant_id":"A21STU4Z97J2Z6"},{"rt":2377,"stimulus":"stimuli/25.jpg","button_pressed":"0","trial_type":"image-button-response","trial_index":63,"time_elapsed":405405,"internal_node_id":"0.0-63.0","participant_id":"A21STU4Z97J2Z6"},{"rt":4172,"response":"55","trial_type":"image-slider-response","trial_index":64,"time_elapsed":409582,"internal_node_id":"0.0-64.0","participant_id":"A21STU4Z97J2Z6"},{"rt":951,"stimulus":"stimuli/25.jpg","button_pressed":"0","trial_type":"image-button-response","trial_index":65,"time_elapsed":410543,"internal_node_id":"0.0-65.0","participant_id":"A21STU4Z97J2Z6"},{"rt":null,"stimulus":"<p style=\"font-size: 48px;\">+</p>","key_press":null,"Name":"fixation","trial_type":"html-keyboard-response","trial_index":66,"time_elapsed":412048,"internal_node_id":"0.0-66.0","participant_id":"A21STU4Z97J2Z6"},{"rt":null,"stimulus":"stimuli/13.jpg","button_pressed":null,"trial_type":"image-button-response","trial_index":67,"time_elapsed":417051,"internal_node_id":"0.0-67.0","participant_id":"A21STU4Z97J2Z6"},{"rt":1817,"stimulus":"stimuli/13.jpg","button_pressed":"0","trial_type":"image-button-response","trial_index":68,"time_elapsed":418882,"internal_node_id":"0.0-68.0","participant_id":"A21STU4Z97J2Z6"},{"rt":2816,"response":"26","trial_type":"image-slider-response","trial_index":69,"time_elapsed":421708,"internal_node_id":"0.0-69.0","participant_id":"A21STU4Z97J2Z6"},{"rt":10889,"stimulus":"stimuli/13.jpg","button_pressed":"0","trial_type":"image-button-response","trial_index":70,"time_elapsed":432604,"internal_node_id":"0.0-70.0","participant_id":"A21STU4Z97J2Z6"},{"rt":null,"stimulus":"<p style=\"font-size: 48px;\">+</p>","key_press":null,"Name":"fixation","trial_type":"html-keyboard-response","trial_index":71,"time_elapsed":433613,"internal_node_id":"0.0-71.0","participant_id":"A21STU4Z97J2Z6"},{"rt":null,"stimulus":"stimuli/14.jpg","button_pressed":null,"trial_type":"image-button-response","trial_index":72,"time_elapsed":438614,"internal_node_id":"0.0-72.0","participant_id":"A21STU4Z97J2Z6"},{"rt":1150,"stimulus":"stimuli/14.jpg","button_pressed":"0","trial_type":"image-button-response","trial_index":73,"time_elapsed":439767,"internal_node_id":"0.0-73.0","participant_id":"A21STU4Z97J2Z6"},{"rt":2206,"response":"51","trial_type":"image-slider-response","trial_index":74,"time_elapsed":441984,"internal_node_id":"0.0-74.0","participant_id":"A21STU4Z97J2Z6"},{"rt":6079,"stimulus":"stimuli/14.jpg","button_pressed":"0","trial_type":"image-button-response","trial_index":75,"time_elapsed":448069,"internal_node_id":"0.0-75.0","participant_id":"A21STU4Z97J2Z6"},{"rt":null,"stimulus":"<p style=\"font-size: 48px;\">+</p>","key_press":null,"Name":"fixation","trial_type":"html-keyboard-response","trial_index":76,"time_elapsed":450024,"internal_node_id":"0.0-76.0","participant_id":"A21STU4Z97J2Z6"},{"rt":null,"stimulus":"stimuli/7.jpg","button_pressed":null,"trial_type":"image-button-response","trial_index":77,"time_elapsed":456025,"internal_node_id":"0.0-77.0","participant_id":"A21STU4Z97J2Z6"},{"rt":8623,"stimulus":"stimuli/7.jpg","button_pressed":"0","trial_type":"image-button-response","trial_index":78,"time_elapsed":464653,"internal_node_id":"0.0-78.0","participant_id":"A21STU4Z97J2Z6"},{"rt":2763,"response":"41","trial_type":"image-slider-response","trial_index":79,"time_elapsed":467424,"internal_node_id":"0.0-79.0","participant_id":"A21STU4Z97J2Z6"},{"rt":1322,"stimulus":"stimuli/7.jpg","button_pressed":"0","trial_type":"image-button-response","trial_index":80,"time_elapsed":468756,"internal_node_id":"0.0-80.0","participant_id":"A21STU4Z97J2Z6"},{"rt":null,"stimulus":"<p style=\"font-size: 48px;\">+</p>","key_press":null,"Name":"fixation","trial_type":"html-keyboard-response","trial_index":81,"time_elapsed":469763,"internal_node_id":"0.0-81.0","participant_id":"A21STU4Z97J2Z6"},{"rt":null,"stimulus":"stimuli/57.jpg","button_pressed":null,"trial_type":"image-button-response","trial_index":82,"time_elapsed":475018,"internal_node_id":"0.0-82.0","participant_id":"A21STU4Z97J2Z6"},{"rt":22122,"stimulus":"stimuli/57.jpg","button_pressed":"0","trial_type":"image-button-response","trial_index":83,"time_elapsed":497143,"internal_node_id":"0.0-83.0","participant_id":"A21STU4Z97J2Z6"},{"rt":3164,"response":"12","trial_type":"image-slider-response","trial_index":84,"time_elapsed":500313,"internal_node_id":"0.0-84.0","participant_id":"A21STU4Z97J2Z6"},{"rt":1160,"stimulus":"stimuli/57.jpg","button_pressed":"0","trial_type":"image-button-response","trial_index":85,"time_elapsed":501483,"internal_node_id":"0.0-85.0","participant_id":"A21STU4Z97J2Z6"},{"rt":3736,"responses":"{\"Q0\":\"our\"}","trial_type":"survey-text","trial_index":86,"time_elapsed":505226,"internal_node_id":"0.0-86.0-0.0","participant_id":"A21STU4Z97J2Z6"},{"rt":null,"stimulus":"<p style=\"font-size: 48px;\">+</p>","key_press":null,"Name":"fixation","trial_type":"html-keyboard-response","trial_index":87,"time_elapsed":506235,"internal_node_id":"0.0-87.0","participant_id":"A21STU4Z97J2Z6"},{"rt":null,"stimulus":"stimuli/65.jpg","button_pressed":null,"trial_type":"image-button-response","trial_index":88,"time_elapsed":511237,"internal_node_id":"0.0-88.0","participant_id":"A21STU4Z97J2Z6"},{"rt":8132,"stimulus":"stimuli/65.jpg","button_pressed":"0","trial_type":"image-button-response","trial_index":89,"time_elapsed":519373,"internal_node_id":"0.0-89.0","participant_id":"A21STU4Z97J2Z6"},{"rt":3406,"response":"42","trial_type":"image-slider-response","trial_index":90,"time_elapsed":522784,"internal_node_id":"0.0-90.0","participant_id":"A21STU4Z97J2Z6"},{"rt":2497,"stimulus":"stimuli/65.jpg","button_pressed":"1","trial_type":"image-button-response","trial_index":91,"time_elapsed":525292,"internal_node_id":"0.0-91.0","participant_id":"A21STU4Z97J2Z6"},{"rt":null,"stimulus":"<p style=\"font-size: 48px;\">+</p>","key_press":null,"Name":"fixation","trial_type":"html-keyboard-response","trial_index":92,"time_elapsed":526295,"internal_node_id":"0.0-92.0","participant_id":"A21STU4Z97J2Z6"},{"rt":null,"stimulus":"stimuli/55.jpg","button_pressed":null,"trial_type":"image-button-response","trial_index":93,"time_elapsed":531297,"internal_node_id":"0.0-93.0","participant_id":"A21STU4Z97J2Z6"},{"rt":1294,"stimulus":"stimuli/55.jpg","button_pressed":"0","trial_type":"image-button-response","trial_index":94,"time_elapsed":532594,"internal_node_id":"0.0-94.0","participant_id":"A21STU4Z97J2Z6"},{"rt":2324,"response":"9","trial_type":"image-slider-response","trial_index":95,"time_elapsed":534928,"internal_node_id":"0.0-95.0","participant_id":"A21STU4Z97J2Z6"},{"rt":959,"stimulus":"stimuli/55.jpg","button_pressed":"0","trial_type":"image-button-response","trial_index":96,"time_elapsed":535898,"internal_node_id":"0.0-96.0","participant_id":"A21STU4Z97J2Z6"},{"rt":null,"stimulus":"<p style=\"font-size: 48px;\">+</p>","key_press":null,"Name":"fixation","trial_type":"html-keyboard-response","trial_index":97,"time_elapsed":536907,"internal_node_id":"0.0-97.0","participant_id":"A21STU4Z97J2Z6"},{"rt":null,"stimulus":"stimuli/37.jpg","button_pressed":null,"trial_type":"image-button-response","trial_index":98,"time_elapsed":541909,"internal_node_id":"0.0-98.0","participant_id":"A21STU4Z97J2Z6"},{"rt":1711,"stimulus":"stimuli/37.jpg","button_pressed":"0","trial_type":"image-button-response","trial_index":99,"time_elapsed":543625,"internal_node_id":"0.0-99.0","participant_id":"A21STU4Z97J2Z6"},{"rt":2423,"response":"44","trial_type":"image-slider-response","trial_index":100,"time_elapsed":546061,"internal_node_id":"0.0-100.0","participant_id":"A21STU4Z97J2Z6"},{"rt":1835,"stimulus":"stimuli/37.jpg","button_pressed":"0","trial_type":"image-button-response","trial_index":101,"time_elapsed":547900,"internal_node_id":"0.0-101.0","participant_id":"A21STU4Z97J2Z6"},{"rt":null,"stimulus":"<p style=\"font-size: 48px;\">+</p>","key_press":null,"Name":"fixation","trial_type":"html-keyboard-response","trial_index":102,"time_elapsed":548902,"internal_node_id":"0.0-102.0","participant_id":"A21STU4Z97J2Z6"},{"rt":null,"stimulus":"stimuli/67.jpg","button_pressed":null,"trial_type":"image-button-response","trial_index":103,"time_elapsed":553905,"internal_node_id":"0.0-103.0","participant_id":"A21STU4Z97J2Z6"},{"rt":30806,"stimulus":"stimuli/67.jpg","button_pressed":"0","trial_type":"image-button-response","trial_index":104,"time_elapsed":584714,"internal_node_id":"0.0-104.0","participant_id":"A21STU4Z97J2Z6"},{"rt":3599,"response":"67","trial_type":"image-slider-response","trial_index":105,"time_elapsed":588322,"internal_node_id":"0.0-105.0","participant_id":"A21STU4Z97J2Z6"},{"rt":1162,"stimulus":"stimuli/67.jpg","button_pressed":"1","trial_type":"image-button-response","trial_index":106,"time_elapsed":589489,"internal_node_id":"0.0-106.0","participant_id":"A21STU4Z97J2Z6"},{"rt":null,"stimulus":"<p style=\"font-size: 48px;\">+</p>","key_press":null,"Name":"fixation","trial_type":"html-keyboard-response","trial_index":107,"time_elapsed":590496,"internal_node_id":"0.0-107.0","participant_id":"A21STU4Z97J2Z6"},{"rt":null,"stimulus":"stimuli/35.jpg","button_pressed":null,"trial_type":"image-button-response","trial_index":108,"time_elapsed":596021,"internal_node_id":"0.0-108.0","participant_id":"A21STU4Z97J2Z6"},{"rt":47276,"stimulus":"stimuli/35.jpg","button_pressed":"2","trial_type":"image-button-response","trial_index":109,"time_elapsed":643302,"internal_node_id":"0.0-109.0","participant_id":"A21STU4Z97J2Z6"},{"rt":2463,"response":"6","trial_type":"image-slider-response","trial_index":110,"time_elapsed":645770,"internal_node_id":"0.0-110.0","participant_id":"A21STU4Z97J2Z6"},{"rt":4348,"stimulus":"stimuli/35.jpg","button_pressed":"2","trial_type":"image-button-response","trial_index":111,"time_elapsed":650128,"internal_node_id":"0.0-111.0","participant_id":"A21STU4Z97J2Z6"},{"rt":4030,"responses":"{\"Q0\":\"course\"}","trial_type":"survey-text","trial_index":112,"time_elapsed":654164,"internal_node_id":"0.0-112.0-0.0","participant_id":"A21STU4Z97J2Z6"},{"rt":null,"stimulus":"<p style=\"font-size: 48px;\">+</p>","key_press":null,"Name":"fixation","trial_type":"html-keyboard-response","trial_index":113,"time_elapsed":654670,"internal_node_id":"0.0-113.0","participant_id":"A21STU4Z97J2Z6"},{"rt":null,"stimulus":"stimuli/30.jpg","button_pressed":null,"trial_type":"image-button-response","trial_index":114,"time_elapsed":660042,"internal_node_id":"0.0-114.0","participant_id":"A21STU4Z97J2Z6"},{"rt":40931,"stimulus":"stimuli/30.jpg","button_pressed":"0","trial_type":"image-button-response","trial_index":115,"time_elapsed":700976,"internal_node_id":"0.0-115.0","participant_id":"A21STU4Z97J2Z6"},{"rt":2477,"response":"47","trial_type":"image-slider-response","trial_index":116,"time_elapsed":703469,"internal_node_id":"0.0-116.0","participant_id":"A21STU4Z97J2Z6"},{"rt":1107,"stimulus":"stimuli/30.jpg","button_pressed":"0","trial_type":"image-button-response","trial_index":117,"time_elapsed":704581,"internal_node_id":"0.0-117.0","participant_id":"A21STU4Z97J2Z6"},{"rt":null,"stimulus":"<p style=\"font-size: 48px;\">+</p>","key_press":null,"Name":"fixation","trial_type":"html-keyboard-response","trial_index":118,"time_elapsed":705585,"internal_node_id":"0.0-118.0","participant_id":"A21STU4Z97J2Z6"},{"rt":null,"stimulus":"stimuli/39.jpg","button_pressed":null,"trial_type":"image-button-response","trial_index":119,"time_elapsed":710589,"internal_node_id":"0.0-119.0","participant_id":"A21STU4Z97J2Z6"},{"rt":1237,"stimulus":"stimuli/39.jpg","button_pressed":"2","trial_type":"image-button-response","trial_index":120,"time_elapsed":711835,"internal_node_id":"0.0-120.0","participant_id":"A21STU4Z97J2Z6"},{"rt":1900,"response":"23","trial_type":"image-slider-response","trial_index":121,"time_elapsed":713743,"internal_node_id":"0.0-121.0","participant_id":"A21STU4Z97J2Z6"},{"rt":984,"stimulus":"stimuli/39.jpg","button_pressed":"2","trial_type":"image-button-response","trial_index":122,"time_elapsed":714739,"internal_node_id":"0.0-122.0","participant_id":"A21STU4Z97J2Z6"},{"rt":null,"stimulus":"<p style=\"font-size: 48px;\">+</p>","key_press":null,"Name":"fixation","trial_type":"html-keyboard-response","trial_index":123,"time_elapsed":716243,"internal_node_id":"0.0-123.0","participant_id":"A21STU4Z97J2Z6"},{"rt":null,"stimulus":"stimuli/47.jpg","button_pressed":null,"trial_type":"image-button-response","trial_index":124,"time_elapsed":721246,"internal_node_id":"0.0-124.0","participant_id":"A21STU4Z97J2Z6"},{"rt":848,"stimulus":"stimuli/47.jpg","button_pressed":"0","trial_type":"image-button-response","trial_index":125,"time_elapsed":722098,"internal_node_id":"0.0-125.0","participant_id":"A21STU4Z97J2Z6"},{"rt":3280,"response":"49","trial_type":"image-slider-response","trial_index":126,"time_elapsed":725387,"internal_node_id":"0.0-126.0","participant_id":"A21STU4Z97J2Z6"},{"rt":998,"stimulus":"stimuli/47.jpg","button_pressed":"0","trial_type":"image-button-response","trial_index":127,"time_elapsed":726390,"internal_node_id":"0.0-127.0","participant_id":"A21STU4Z97J2Z6"},{"rt":null,"stimulus":"<p style=\"font-size: 48px;\">+</p>","key_press":null,"Name":"fixation","trial_type":"html-keyboard-response","trial_index":128,"time_elapsed":726893,"internal_node_id":"0.0-128.0","participant_id":"A21STU4Z97J2Z6"},{"rt":null,"stimulus":"stimuli/69.jpg","button_pressed":null,"trial_type":"image-button-response","trial_index":129,"time_elapsed":731895,"internal_node_id":"0.0-129.0","participant_id":"A21STU4Z97J2Z6"},{"rt":1214,"stimulus":"stimuli/69.jpg","button_pressed":"0","trial_type":"image-button-response","trial_index":130,"time_elapsed":733113,"internal_node_id":"0.0-130.0","participant_id":"A21STU4Z97J2Z6"},{"rt":1747,"response":"45","trial_type":"image-slider-response","trial_index":131,"time_elapsed":734867,"internal_node_id":"0.0-131.0","participant_id":"A21STU4Z97J2Z6"},{"rt":1444,"stimulus":"stimuli/69.jpg","button_pressed":"0","trial_type":"image-button-response","trial_index":132,"time_elapsed":736319,"internal_node_id":"0.0-132.0","participant_id":"A21STU4Z97J2Z6"},{"rt":null,"stimulus":"<p style=\"font-size: 48px;\">+</p>","key_press":null,"Name":"fixation","trial_type":"html-keyboard-response","trial_index":133,"time_elapsed":737321,"internal_node_id":"0.0-133.0","participant_id":"A21STU4Z97J2Z6"},{"rt":null,"stimulus":"stimuli/64.jpg","button_pressed":null,"trial_type":"image-button-response","trial_index":134,"time_elapsed":742325,"internal_node_id":"0.0-134.0","participant_id":"A21STU4Z97J2Z6"},{"rt":1888,"stimulus":"stimuli/64.jpg","button_pressed":"2","trial_type":"image-button-response","trial_index":135,"time_elapsed":744219,"internal_node_id":"0.0-135.0","participant_id":"A21STU4Z97J2Z6"},{"rt":1684,"response":"11","trial_type":"image-slider-response","trial_index":136,"time_elapsed":745907,"internal_node_id":"0.0-136.0","participant_id":"A21STU4Z97J2Z6"},{"rt":1187,"stimulus":"stimuli/64.jpg","button_pressed":"2","trial_type":"image-button-response","trial_index":137,"time_elapsed":747103,"internal_node_id":"0.0-137.0","participant_id":"A21STU4Z97J2Z6"},{"rt":4976,"responses":"{\"Q0\":\"we\"}","trial_type":"survey-text","trial_index":138,"time_elapsed":752085,"internal_node_id":"0.0-138.0-0.0","participant_id":"A21STU4Z97J2Z6"},{"rt":null,"stimulus":"<p style=\"font-size: 48px;\">+</p>","key_press":null,"Name":"fixation","trial_type":"html-keyboard-response","trial_index":139,"time_elapsed":753589,"internal_node_id":"0.0-139.0","participant_id":"A21STU4Z97J2Z6"},{"rt":null,"stimulus":"stimuli/41.jpg","button_pressed":null,"trial_type":"image-button-response","trial_index":140,"time_elapsed":758591,"internal_node_id":"0.0-140.0","participant_id":"A21STU4Z97J2Z6"},{"rt":911,"stimulus":"stimuli/41.jpg","button_pressed":"0","trial_type":"image-button-response","trial_index":141,"time_elapsed":759505,"internal_node_id":"0.0-141.0","participant_id":"A21STU4Z97J2Z6"},{"rt":1916,"response":"16","trial_type":"image-slider-response","trial_index":142,"time_elapsed":761427,"internal_node_id":"0.0-142.0","participant_id":"A21STU4Z97J2Z6"},{"rt":861,"stimulus":"stimuli/41.jpg","button_pressed":"0","trial_type":"image-button-response","trial_index":143,"time_elapsed":762294,"internal_node_id":"0.0-143.0","participant_id":"A21STU4Z97J2Z6"},{"rt":null,"stimulus":"<p style=\"font-size: 48px;\">+</p>","key_press":null,"Name":"fixation","trial_type":"html-keyboard-response","trial_index":144,"time_elapsed":762802,"internal_node_id":"0.0-144.0","participant_id":"A21STU4Z97J2Z6"},{"rt":null,"stimulus":"stimuli/16.jpg","button_pressed":null,"trial_type":"image-button-response","trial_index":145,"time_elapsed":767804,"internal_node_id":"0.0-145.0","participant_id":"A21STU4Z97J2Z6"},{"rt":1147,"stimulus":"stimuli/16.jpg","button_pressed":"0","trial_type":"image-button-response","trial_index":146,"time_elapsed":768955,"internal_node_id":"0.0-146.0","participant_id":"A21STU4Z97J2Z6"},{"rt":2855,"response":"36","trial_type":"image-slider-response","trial_index":147,"time_elapsed":771817,"internal_node_id":"0.0-147.0","participant_id":"A21STU4Z97J2Z6"},{"rt":891,"stimulus":"stimuli/16.jpg","button_pressed":"1","trial_type":"image-button-response","trial_index":148,"time_elapsed":772716,"internal_node_id":"0.0-148.0","participant_id":"A21STU4Z97J2Z6"},{"rt":null,"stimulus":"<p style=\"font-size: 48px;\">+</p>","key_press":null,"Name":"fixation","trial_type":"html-keyboard-response","trial_index":149,"time_elapsed":773219,"internal_node_id":"0.0-149.0","participant_id":"A21STU4Z97J2Z6"},{"rt":null,"stimulus":"stimuli/3.jpg","button_pressed":null,"trial_type":"image-button-response","trial_index":150,"time_elapsed":779021,"internal_node_id":"0.0-150.0","participant_id":"A21STU4Z97J2Z6"},{"rt":2251,"stimulus":"stimuli/3.jpg","button_pressed":"0","trial_type":"image-button-response","trial_index":151,"time_elapsed":781276,"internal_node_id":"0.0-151.0","participant_id":"A21STU4Z97J2Z6"},{"rt":2587,"response":"43","trial_type":"image-slider-response","trial_index":152,"time_elapsed":783868,"internal_node_id":"0.0-152.0","participant_id":"A21STU4Z97J2Z6"},{"rt":1109,"stimulus":"stimuli/3.jpg","button_pressed":"0","trial_type":"image-button-response","trial_index":153,"time_elapsed":784982,"internal_node_id":"0.0-153.0","participant_id":"A21STU4Z97J2Z6"},{"rt":null,"stimulus":"<p style=\"font-size: 48px;\">+</p>","key_press":null,"Name":"fixation","trial_type":"html-keyboard-response","trial_index":154,"time_elapsed":786485,"internal_node_id":"0.0-154.0","participant_id":"A21STU4Z97J2Z6"},{"rt":null,"stimulus":"stimuli/8.jpg","button_pressed":null,"trial_type":"image-button-response","trial_index":155,"time_elapsed":792025,"internal_node_id":"0.0-155.0","participant_id":"A21STU4Z97J2Z6"},{"rt":11601,"stimulus":"stimuli/8.jpg","button_pressed":"0","trial_type":"image-button-response","trial_index":156,"time_elapsed":803629,"internal_node_id":"0.0-156.0","participant_id":"A21STU4Z97J2Z6"},{"rt":2546,"response":"61","trial_type":"image-slider-response","trial_index":157,"time_elapsed":806181,"internal_node_id":"0.0-157.0","participant_id":"A21STU4Z97J2Z6"},{"rt":1065,"stimulus":"stimuli/8.jpg","button_pressed":"0","trial_type":"image-button-response","trial_index":158,"time_elapsed":807257,"internal_node_id":"0.0-158.0","participant_id":"A21STU4Z97J2Z6"},{"rt":null,"stimulus":"<p style=\"font-size: 48px;\">+</p>","key_press":null,"Name":"fixation","trial_type":"html-keyboard-response","trial_index":159,"time_elapsed":808760,"internal_node_id":"0.0-159.0","participant_id":"A21STU4Z97J2Z6"},{"rt":null,"stimulus":"stimuli/44.jpg","button_pressed":null,"trial_type":"image-button-response","trial_index":160,"time_elapsed":814022,"internal_node_id":"0.0-160.0","participant_id":"A21STU4Z97J2Z6"},{"rt":46754,"stimulus":"stimuli/44.jpg","button_pressed":"0","trial_type":"image-button-response","trial_index":161,"time_elapsed":860779,"internal_node_id":"0.0-161.0","participant_id":"A21STU4Z97J2Z6"},{"rt":2949,"response":"56","trial_type":"image-slider-response","trial_index":162,"time_elapsed":863733,"internal_node_id":"0.0-162.0","participant_id":"A21STU4Z97J2Z6"},{"rt":1583,"stimulus":"stimuli/44.jpg","button_pressed":"1","trial_type":"image-button-response","trial_index":163,"time_elapsed":865338,"internal_node_id":"0.0-163.0","participant_id":"A21STU4Z97J2Z6"},{"rt":2423,"stimulus":"stimuli/ins/Slide8.JPG","button_pressed":"0","trial_type":"image-button-response","trial_index":164,"time_elapsed":867767,"internal_node_id":"0.0-164.0","participant_id":"A21STU4Z97J2Z6"}]