[{"rt":37764,"responses":"{\"Q0\":\"A2CF2BD4Q0ZDJN\"}","trial_type":"survey-text","trial_index":0,"time_elapsed":37777,"internal_node_id":"0.0-0.0-0.0","participant_id":"A2CF2BD4Q0ZDJN"},{"rt":5460,"stimulus":"stimuli/ins/Slide1.JPG","button_pressed":"0","Name":"instructions","trial_type":"image-button-response","trial_index":1,"time_elapsed":43240,"internal_node_id":"0.0-1.0","participant_id":"A2CF2BD4Q0ZDJN"},{"rt":3101,"stimulus":"stimuli/ins/Slide2.JPG","button_pressed":"0","Name":"instructions","trial_type":"image-button-response","trial_index":2,"time_elapsed":46344,"internal_node_id":"0.0-2.0","participant_id":"A2CF2BD4Q0ZDJN"},{"rt":4566,"stimulus":"stimuli/ins/Slide3.JPG","button_pressed":"0","Name":"instructions","trial_type":"image-button-response","trial_index":3,"time_elapsed":50911,"internal_node_id":"0.0-3.0","participant_id":"A2CF2BD4Q0ZDJN"},{"rt":5479,"stimulus":"stimuli/ins/Slide4.JPG","button_pressed":"0","Name":"instructions","trial_type":"image-button-response","trial_index":4,"time_elapsed":56391,"internal_node_id":"0.0-4.0","participant_id":"A2CF2BD4Q0ZDJN"},{"rt":2895,"stimulus":"stimuli/ins/Slide5.JPG","button_pressed":"0","Name":"instructions","trial_type":"image-button-response","trial_index":5,"time_elapsed":59287,"internal_node_id":"0.0-5.0","participant_id":"A2CF2BD4Q0ZDJN"},{"rt":2119,"stimulus":"stimuli/ins/Slide6.JPG","button_pressed":"0","Name":"instructions","trial_type":"image-button-response","trial_index":6,"time_elapsed":61408,"internal_node_id":"0.0-6.0","participant_id":"A2CF2BD4Q0ZDJN"},{"rt":1663,"stimulus":"stimuli/ins/Slide7.JPG","button_pressed":"0","Name":"instructions","trial_type":"image-button-response","trial_index":7,"time_elapsed":63071,"internal_node_id":"0.0-7.0","participant_id":"A2CF2BD4Q0ZDJN"},{"rt":7790,"responses":"{\"Q0\":\"but\"}","trial_type":"survey-text","trial_index":8,"time_elapsed":70863,"internal_node_id":"0.0-8.0-0.0","participant_id":"A2CF2BD4Q0ZDJN"},{"rt":null,"stimulus":"<p style=\"font-size: 48px;\">+</p>","key_press":null,"Name":"fixation","trial_type":"html-keyboard-response","trial_index":9,"time_elapsed":71365,"internal_node_id":"0.0-9.0","participant_id":"A2CF2BD4Q0ZDJN"},{"rt":null,"stimulus":"stimuli/29.jpg","button_pressed":null,"trial_type":"image-button-response","trial_index":10,"time_elapsed":76367,"internal_node_id":"0.0-10.0","participant_id":"A2CF2BD4Q0ZDJN"},{"rt":1822,"stimulus":"stimuli/29.jpg","button_pressed":"0","trial_type":"image-button-response","trial_index":11,"time_elapsed":78191,"internal_node_id":"0.0-11.0","participant_id":"A2CF2BD4Q0ZDJN"},{"rt":5934,"response":"66","trial_type":"image-slider-response","trial_index":12,"time_elapsed":84127,"internal_node_id":"0.0-12.0","participant_id":"A2CF2BD4Q0ZDJN"},{"rt":7997,"stimulus":"stimuli/29.jpg","button_pressed":"0","trial_type":"image-button-response","trial_index":13,"time_elapsed":92128,"internal_node_id":"0.0-13.0","participant_id":"A2CF2BD4Q0ZDJN"},{"rt":null,"stimulus":"<p style=\"font-size: 48px;\">+</p>","key_press":null,"Name":"fixation","trial_type":"html-keyboard-response","trial_index":14,"time_elapsed":92628,"internal_node_id":"0.0-14.0","participant_id":"A2CF2BD4Q0ZDJN"},{"rt":null,"stimulus":"stimuli/55.jpg","button_pressed":null,"trial_type":"image-button-response","trial_index":15,"time_elapsed":97630,"internal_node_id":"0.0-15.0","participant_id":"A2CF2BD4Q0ZDJN"},{"rt":2109,"stimulus":"stimuli/55.jpg","button_pressed":"0","trial_type":"image-button-response","trial_index":16,"time_elapsed":99742,"internal_node_id":"0.0-16.0","participant_id":"A2CF2BD4Q0ZDJN"},{"rt":3742,"response":"51","trial_type":"image-slider-response","trial_index":17,"time_elapsed":103486,"internal_node_id":"0.0-17.0","participant_id":"A2CF2BD4Q0ZDJN"},{"rt":4503,"stimulus":"stimuli/55.jpg","button_pressed":"1","trial_type":"image-button-response","trial_index":18,"time_elapsed":107992,"internal_node_id":"0.0-18.0","participant_id":"A2CF2BD4Q0ZDJN"},{"rt":null,"stimulus":"<p style=\"font-size: 48px;\">+</p>","key_press":null,"Name":"fixation","trial_type":"html-keyboard-response","trial_index":19,"time_elapsed":108492,"internal_node_id":"0.0-19.0","participant_id":"A2CF2BD4Q0ZDJN"},{"rt":null,"stimulus":"stimuli/67.jpg","button_pressed":null,"trial_type":"image-button-response","trial_index":20,"time_elapsed":113493,"internal_node_id":"0.0-20.0","participant_id":"A2CF2BD4Q0ZDJN"},{"rt":1936,"stimulus":"stimuli/67.jpg","button_pressed":"0","trial_type":"image-button-response","trial_index":21,"time_elapsed":115431,"internal_node_id":"0.0-21.0","participant_id":"A2CF2BD4Q0ZDJN"},{"rt":3334,"response":"70","trial_type":"image-slider-response","trial_index":22,"time_elapsed":118766,"internal_node_id":"0.0-22.0","participant_id":"A2CF2BD4Q0ZDJN"},{"rt":1775,"stimulus":"stimuli/67.jpg","button_pressed":"1","trial_type":"image-button-response","trial_index":23,"time_elapsed":120543,"internal_node_id":"0.0-23.0","participant_id":"A2CF2BD4Q0ZDJN"},{"rt":null,"stimulus":"<p style=\"font-size: 48px;\">+</p>","key_press":null,"Name":"fixation","trial_type":"html-keyboard-response","trial_index":24,"time_elapsed":121044,"internal_node_id":"0.0-24.0","participant_id":"A2CF2BD4Q0ZDJN"},{"rt":null,"stimulus":"stimuli/48.jpg","button_pressed":null,"trial_type":"image-button-response","trial_index":25,"time_elapsed":126046,"internal_node_id":"0.0-25.0","participant_id":"A2CF2BD4Q0ZDJN"},{"rt":5072,"stimulus":"stimuli/48.jpg","button_pressed":"2","trial_type":"image-button-response","trial_index":26,"time_elapsed":131118,"internal_node_id":"0.0-26.0","participant_id":"A2CF2BD4Q0ZDJN"},{"rt":3238,"response":"2","trial_type":"image-slider-response","trial_index":27,"time_elapsed":134358,"internal_node_id":"0.0-27.0","participant_id":"A2CF2BD4Q0ZDJN"},{"rt":2918,"stimulus":"stimuli/48.jpg","button_pressed":"2","trial_type":"image-button-response","trial_index":28,"time_elapsed":137279,"internal_node_id":"0.0-28.0","participant_id":"A2CF2BD4Q0ZDJN"},{"rt":null,"stimulus":"<p style=\"font-size: 48px;\">+</p>","key_press":null,"Name":"fixation","trial_type":"html-keyboard-response","trial_index":29,"time_elapsed":138780,"internal_node_id":"0.0-29.0","participant_id":"A2CF2BD4Q0ZDJN"},{"rt":null,"stimulus":"stimuli/33.jpg","button_pressed":null,"trial_type":"image-button-response","trial_index":30,"time_elapsed":143781,"internal_node_id":"0.0-30.0","participant_id":"A2CF2BD4Q0ZDJN"},{"rt":2345,"stimulus":"stimuli/33.jpg","button_pressed":"0","trial_type":"image-button-response","trial_index":31,"time_elapsed":146126,"internal_node_id":"0.0-31.0","participant_id":"A2CF2BD4Q0ZDJN"},{"rt":4342,"response":"60","trial_type":"image-slider-response","trial_index":32,"time_elapsed":150470,"internal_node_id":"0.0-32.0","participant_id":"A2CF2BD4Q0ZDJN"},{"rt":11168,"stimulus":"stimuli/33.jpg","button_pressed":"1","trial_type":"image-button-response","trial_index":33,"time_elapsed":161639,"internal_node_id":"0.0-33.0","participant_id":"A2CF2BD4Q0ZDJN"},{"rt":5552,"responses":"{\"Q0\":\"rock\"}","trial_type":"survey-text","trial_index":34,"time_elapsed":167191,"internal_node_id":"0.0-34.0-0.0","participant_id":"A2CF2BD4Q0ZDJN"},{"rt":null,"stimulus":"<p style=\"font-size: 48px;\">+</p>","key_press":null,"Name":"fixation","trial_type":"html-keyboard-response","trial_index":35,"time_elapsed":168692,"internal_node_id":"0.0-35.0","participant_id":"A2CF2BD4Q0ZDJN"},{"rt":null,"stimulus":"stimuli/63.jpg","button_pressed":null,"trial_type":"image-button-response","trial_index":36,"time_elapsed":173692,"internal_node_id":"0.0-36.0","participant_id":"A2CF2BD4Q0ZDJN"},{"rt":2320,"stimulus":"stimuli/63.jpg","button_pressed":"0","trial_type":"image-button-response","trial_index":37,"time_elapsed":176015,"internal_node_id":"0.0-37.0","participant_id":"A2CF2BD4Q0ZDJN"},{"rt":3463,"response":"54","trial_type":"image-slider-response","trial_index":38,"time_elapsed":179479,"internal_node_id":"0.0-38.0","participant_id":"A2CF2BD4Q0ZDJN"},{"rt":3133,"stimulus":"stimuli/63.jpg","button_pressed":"0","trial_type":"image-button-response","trial_index":39,"time_elapsed":182614,"internal_node_id":"0.0-39.0","participant_id":"A2CF2BD4Q0ZDJN"},{"rt":null,"stimulus":"<p style=\"font-size: 48px;\">+</p>","key_press":null,"Name":"fixation","trial_type":"html-keyboard-response","trial_index":40,"time_elapsed":184115,"internal_node_id":"0.0-40.0","participant_id":"A2CF2BD4Q0ZDJN"},{"rt":null,"stimulus":"stimuli/45.jpg","button_pressed":null,"trial_type":"image-button-response","trial_index":41,"time_elapsed":189116,"internal_node_id":"0.0-41.0","participant_id":"A2CF2BD4Q0ZDJN"},{"rt":4137,"stimulus":"stimuli/45.jpg","button_pressed":"0","trial_type":"image-button-response","trial_index":42,"time_elapsed":193254,"internal_node_id":"0.0-42.0","participant_id":"A2CF2BD4Q0ZDJN"},{"rt":2670,"response":"66","trial_type":"image-slider-response","trial_index":43,"time_elapsed":195926,"internal_node_id":"0.0-43.0","participant_id":"A2CF2BD4Q0ZDJN"},{"rt":2351,"stimulus":"stimuli/45.jpg","button_pressed":"1","trial_type":"image-button-response","trial_index":44,"time_elapsed":198278,"internal_node_id":"0.0-44.0","participant_id":"A2CF2BD4Q0ZDJN"},{"rt":null,"stimulus":"<p style=\"font-size: 48px;\">+</p>","key_press":null,"Name":"fixation","trial_type":"html-keyboard-response","trial_index":45,"time_elapsed":199779,"internal_node_id":"0.0-45.0","participant_id":"A2CF2BD4Q0ZDJN"},{"rt":null,"stimulus":"stimuli/25.jpg","button_pressed":null,"trial_type":"image-button-response","trial_index":46,"time_elapsed":204780,"internal_node_id":"0.0-46.0","participant_id":"A2CF2BD4Q0ZDJN"},{"rt":1449,"stimulus":"stimuli/25.jpg","button_pressed":"0","trial_type":"image-button-response","trial_index":47,"time_elapsed":206231,"internal_node_id":"0.0-47.0","participant_id":"A2CF2BD4Q0ZDJN"},{"rt":3142,"response":"67","trial_type":"image-slider-response","trial_index":48,"time_elapsed":209374,"internal_node_id":"0.0-48.0","participant_id":"A2CF2BD4Q0ZDJN"},{"rt":1735,"stimulus":"stimuli/25.jpg","button_pressed":"0","trial_type":"image-button-response","trial_index":49,"time_elapsed":211111,"internal_node_id":"0.0-49.0","participant_id":"A2CF2BD4Q0ZDJN"},{"rt":null,"stimulus":"<p style=\"font-size: 48px;\">+</p>","key_press":null,"Name":"fixation","trial_type":"html-keyboard-response","trial_index":50,"time_elapsed":211611,"internal_node_id":"0.0-50.0","participant_id":"A2CF2BD4Q0ZDJN"},{"rt":null,"stimulus":"stimuli/64.jpg","button_pressed":null,"trial_type":"image-button-response","trial_index":51,"time_elapsed":216612,"internal_node_id":"0.0-51.0","participant_id":"A2CF2BD4Q0ZDJN"},{"rt":1521,"stimulus":"stimuli/64.jpg","button_pressed":"0","trial_type":"image-button-response","trial_index":52,"time_elapsed":218134,"internal_node_id":"0.0-52.0","participant_id":"A2CF2BD4Q0ZDJN"},{"rt":2678,"response":"40","trial_type":"image-slider-response","trial_index":53,"time_elapsed":220814,"internal_node_id":"0.0-53.0","participant_id":"A2CF2BD4Q0ZDJN"},{"rt":2814,"stimulus":"stimuli/64.jpg","button_pressed":"1","trial_type":"image-button-response","trial_index":54,"time_elapsed":223630,"internal_node_id":"0.0-54.0","participant_id":"A2CF2BD4Q0ZDJN"},{"rt":null,"stimulus":"<p style=\"font-size: 48px;\">+</p>","key_press":null,"Name":"fixation","trial_type":"html-keyboard-response","trial_index":55,"time_elapsed":224631,"internal_node_id":"0.0-55.0","participant_id":"A2CF2BD4Q0ZDJN"},{"rt":null,"stimulus":"stimuli/57.jpg","button_pressed":null,"trial_type":"image-button-response","trial_index":56,"time_elapsed":229632,"internal_node_id":"0.0-56.0","participant_id":"A2CF2BD4Q0ZDJN"},{"rt":1876,"stimulus":"stimuli/57.jpg","button_pressed":"0","trial_type":"image-button-response","trial_index":57,"time_elapsed":231511,"internal_node_id":"0.0-57.0","participant_id":"A2CF2BD4Q0ZDJN"},{"rt":2526,"response":"32","trial_type":"image-slider-response","trial_index":58,"time_elapsed":234039,"internal_node_id":"0.0-58.0","participant_id":"A2CF2BD4Q0ZDJN"},{"rt":1647,"stimulus":"stimuli/57.jpg","button_pressed":"1","trial_type":"image-button-response","trial_index":59,"time_elapsed":235686,"internal_node_id":"0.0-59.0","participant_id":"A2CF2BD4Q0ZDJN"},{"rt":5023,"responses":"{\"Q0\":\"sky\"}","trial_type":"survey-text","trial_index":60,"time_elapsed":240710,"internal_node_id":"0.0-60.0-0.0","participant_id":"A2CF2BD4Q0ZDJN"},{"rt":null,"stimulus":"<p style=\"font-size: 48px;\">+</p>","key_press":null,"Name":"fixation","trial_type":"html-keyboard-response","trial_index":61,"time_elapsed":241211,"internal_node_id":"0.0-61.0","participant_id":"A2CF2BD4Q0ZDJN"},{"rt":null,"stimulus":"stimuli/40.jpg","button_pressed":null,"trial_type":"image-button-response","trial_index":62,"time_elapsed":246212,"internal_node_id":"0.0-62.0","participant_id":"A2CF2BD4Q0ZDJN"},{"rt":1738,"stimulus":"stimuli/40.jpg","button_pressed":"0","trial_type":"image-button-response","trial_index":63,"time_elapsed":247950,"internal_node_id":"0.0-63.0","participant_id":"A2CF2BD4Q0ZDJN"},{"rt":3966,"response":"18","trial_type":"image-slider-response","trial_index":64,"time_elapsed":251918,"internal_node_id":"0.0-64.0","participant_id":"A2CF2BD4Q0ZDJN"},{"rt":4854,"stimulus":"stimuli/40.jpg","button_pressed":"0","trial_type":"image-button-response","trial_index":65,"time_elapsed":256774,"internal_node_id":"0.0-65.0","participant_id":"A2CF2BD4Q0ZDJN"},{"rt":null,"stimulus":"<p style=\"font-size: 48px;\">+</p>","key_press":null,"Name":"fixation","trial_type":"html-keyboard-response","trial_index":66,"time_elapsed":257275,"internal_node_id":"0.0-66.0","participant_id":"A2CF2BD4Q0ZDJN"},{"rt":null,"stimulus":"stimuli/46.jpg","button_pressed":null,"trial_type":"image-button-response","trial_index":67,"time_elapsed":262276,"internal_node_id":"0.0-67.0","participant_id":"A2CF2BD4Q0ZDJN"},{"rt":894,"stimulus":"stimuli/46.jpg","button_pressed":"0","trial_type":"image-button-response","trial_index":68,"time_elapsed":263173,"internal_node_id":"0.0-68.0","participant_id":"A2CF2BD4Q0ZDJN"},{"rt":2943,"response":"51","trial_type":"image-slider-response","trial_index":69,"time_elapsed":266118,"internal_node_id":"0.0-69.0","participant_id":"A2CF2BD4Q0ZDJN"},{"rt":1272,"stimulus":"stimuli/46.jpg","button_pressed":"0","trial_type":"image-button-response","trial_index":70,"time_elapsed":267390,"internal_node_id":"0.0-70.0","participant_id":"A2CF2BD4Q0ZDJN"},{"rt":null,"stimulus":"<p style=\"font-size: 48px;\">+</p>","key_press":null,"Name":"fixation","trial_type":"html-keyboard-response","trial_index":71,"time_elapsed":268390,"internal_node_id":"0.0-71.0","participant_id":"A2CF2BD4Q0ZDJN"},{"rt":null,"stimulus":"stimuli/27.jpg","button_pressed":null,"trial_type":"image-button-response","trial_index":72,"time_elapsed":273391,"internal_node_id":"0.0-72.0","participant_id":"A2CF2BD4Q0ZDJN"},{"rt":1413,"stimulus":"stimuli/27.jpg","button_pressed":"0","trial_type":"image-button-response","trial_index":73,"time_elapsed":274806,"internal_node_id":"0.0-73.0","participant_id":"A2CF2BD4Q0ZDJN"},{"rt":3215,"response":"47","trial_type":"image-slider-response","trial_index":74,"time_elapsed":278022,"internal_node_id":"0.0-74.0","participant_id":"A2CF2BD4Q0ZDJN"},{"rt":863,"stimulus":"stimuli/27.jpg","button_pressed":"0","trial_type":"image-button-response","trial_index":75,"time_elapsed":278886,"internal_node_id":"0.0-75.0","participant_id":"A2CF2BD4Q0ZDJN"},{"rt":null,"stimulus":"<p style=\"font-size: 48px;\">+</p>","key_press":null,"Name":"fixation","trial_type":"html-keyboard-response","trial_index":76,"time_elapsed":280387,"internal_node_id":"0.0-76.0","participant_id":"A2CF2BD4Q0ZDJN"},{"rt":null,"stimulus":"stimuli/31.jpg","button_pressed":null,"trial_type":"image-button-response","trial_index":77,"time_elapsed":285388,"internal_node_id":"0.0-77.0","participant_id":"A2CF2BD4Q0ZDJN"},{"rt":1553,"stimulus":"stimuli/31.jpg","button_pressed":"0","trial_type":"image-button-response","trial_index":78,"time_elapsed":286941,"internal_node_id":"0.0-78.0","participant_id":"A2CF2BD4Q0ZDJN"},{"rt":4079,"response":"48","trial_type":"image-slider-response","trial_index":79,"time_elapsed":291022,"internal_node_id":"0.0-79.0","participant_id":"A2CF2BD4Q0ZDJN"},{"rt":2398,"stimulus":"stimuli/31.jpg","button_pressed":"0","trial_type":"image-button-response","trial_index":80,"time_elapsed":293421,"internal_node_id":"0.0-80.0","participant_id":"A2CF2BD4Q0ZDJN"},{"rt":null,"stimulus":"<p style=\"font-size: 48px;\">+</p>","key_press":null,"Name":"fixation","trial_type":"html-keyboard-response","trial_index":81,"time_elapsed":294423,"internal_node_id":"0.0-81.0","participant_id":"A2CF2BD4Q0ZDJN"},{"rt":null,"stimulus":"stimuli/34.jpg","button_pressed":null,"trial_type":"image-button-response","trial_index":82,"time_elapsed":299425,"internal_node_id":"0.0-82.0","participant_id":"A2CF2BD4Q0ZDJN"},{"rt":1556,"stimulus":"stimuli/34.jpg","button_pressed":"0","trial_type":"image-button-response","trial_index":83,"time_elapsed":300982,"internal_node_id":"0.0-83.0","participant_id":"A2CF2BD4Q0ZDJN"},{"rt":5086,"response":"32","trial_type":"image-slider-response","trial_index":84,"time_elapsed":306069,"internal_node_id":"0.0-84.0","participant_id":"A2CF2BD4Q0ZDJN"},{"rt":1302,"stimulus":"stimuli/34.jpg","button_pressed":"0","trial_type":"image-button-response","trial_index":85,"time_elapsed":307374,"internal_node_id":"0.0-85.0","participant_id":"A2CF2BD4Q0ZDJN"},{"rt":5743,"responses":"{\"Q0\":\"our\"}","trial_type":"survey-text","trial_index":86,"time_elapsed":313118,"internal_node_id":"0.0-86.0-0.0","participant_id":"A2CF2BD4Q0ZDJN"},{"rt":null,"stimulus":"<p style=\"font-size: 48px;\">+</p>","key_press":null,"Name":"fixation","trial_type":"html-keyboard-response","trial_index":87,"time_elapsed":313618,"internal_node_id":"0.0-87.0","participant_id":"A2CF2BD4Q0ZDJN"},{"rt":null,"stimulus":"stimuli/62.jpg","button_pressed":null,"trial_type":"image-button-response","trial_index":88,"time_elapsed":318621,"internal_node_id":"0.0-88.0","participant_id":"A2CF2BD4Q0ZDJN"},{"rt":1737,"stimulus":"stimuli/62.jpg","button_pressed":"0","trial_type":"image-button-response","trial_index":89,"time_elapsed":320358,"internal_node_id":"0.0-89.0","participant_id":"A2CF2BD4Q0ZDJN"},{"rt":2742,"response":"58","trial_type":"image-slider-response","trial_index":90,"time_elapsed":323102,"internal_node_id":"0.0-90.0","participant_id":"A2CF2BD4Q0ZDJN"},{"rt":1487,"stimulus":"stimuli/62.jpg","button_pressed":"1","trial_type":"image-button-response","trial_index":91,"time_elapsed":324590,"internal_node_id":"0.0-91.0","participant_id":"A2CF2BD4Q0ZDJN"},{"rt":null,"stimulus":"<p style=\"font-size: 48px;\">+</p>","key_press":null,"Name":"fixation","trial_type":"html-keyboard-response","trial_index":92,"time_elapsed":325091,"internal_node_id":"0.0-92.0","participant_id":"A2CF2BD4Q0ZDJN"},{"rt":null,"stimulus":"stimuli/24.jpg","button_pressed":null,"trial_type":"image-button-response","trial_index":93,"time_elapsed":330091,"internal_node_id":"0.0-93.0","participant_id":"A2CF2BD4Q0ZDJN"},{"rt":2889,"stimulus":"stimuli/24.jpg","button_pressed":"0","trial_type":"image-button-response","trial_index":94,"time_elapsed":332982,"internal_node_id":"0.0-94.0","participant_id":"A2CF2BD4Q0ZDJN"},{"rt":2862,"response":"54","trial_type":"image-slider-response","trial_index":95,"time_elapsed":335845,"internal_node_id":"0.0-95.0","participant_id":"A2CF2BD4Q0ZDJN"},{"rt":991,"stimulus":"stimuli/24.jpg","button_pressed":"1","trial_type":"image-button-response","trial_index":96,"time_elapsed":336837,"internal_node_id":"0.0-96.0","participant_id":"A2CF2BD4Q0ZDJN"},{"rt":null,"stimulus":"<p style=\"font-size: 48px;\">+</p>","key_press":null,"Name":"fixation","trial_type":"html-keyboard-response","trial_index":97,"time_elapsed":338338,"internal_node_id":"0.0-97.0","participant_id":"A2CF2BD4Q0ZDJN"},{"rt":null,"stimulus":"stimuli/32.jpg","button_pressed":null,"trial_type":"image-button-response","trial_index":98,"time_elapsed":343339,"internal_node_id":"0.0-98.0","participant_id":"A2CF2BD4Q0ZDJN"},{"rt":1528,"stimulus":"stimuli/32.jpg","button_pressed":"0","trial_type":"image-button-response","trial_index":99,"time_elapsed":344869,"internal_node_id":"0.0-99.0","participant_id":"A2CF2BD4Q0ZDJN"},{"rt":3462,"response":"36","trial_type":"image-slider-response","trial_index":100,"time_elapsed":348333,"internal_node_id":"0.0-100.0","participant_id":"A2CF2BD4Q0ZDJN"},{"rt":2079,"stimulus":"stimuli/32.jpg","button_pressed":"0","trial_type":"image-button-response","trial_index":101,"time_elapsed":350414,"internal_node_id":"0.0-101.0","participant_id":"A2CF2BD4Q0ZDJN"},{"rt":null,"stimulus":"<p style=\"font-size: 48px;\">+</p>","key_press":null,"Name":"fixation","trial_type":"html-keyboard-response","trial_index":102,"time_elapsed":350914,"internal_node_id":"0.0-102.0","participant_id":"A2CF2BD4Q0ZDJN"},{"rt":null,"stimulus":"stimuli/2.jpg","button_pressed":null,"trial_type":"image-button-response","trial_index":103,"time_elapsed":355915,"internal_node_id":"0.0-103.0","participant_id":"A2CF2BD4Q0ZDJN"},{"rt":1769,"stimulus":"stimuli/2.jpg","button_pressed":"0","trial_type":"image-button-response","trial_index":104,"time_elapsed":357685,"internal_node_id":"0.0-104.0","participant_id":"A2CF2BD4Q0ZDJN"},{"rt":3559,"response":"64","trial_type":"image-slider-response","trial_index":105,"time_elapsed":361246,"internal_node_id":"0.0-105.0","participant_id":"A2CF2BD4Q0ZDJN"},{"rt":1142,"stimulus":"stimuli/2.jpg","button_pressed":"0","trial_type":"image-button-response","trial_index":106,"time_elapsed":362389,"internal_node_id":"0.0-106.0","participant_id":"A2CF2BD4Q0ZDJN"},{"rt":null,"stimulus":"<p style=\"font-size: 48px;\">+</p>","key_press":null,"Name":"fixation","trial_type":"html-keyboard-response","trial_index":107,"time_elapsed":363390,"internal_node_id":"0.0-107.0","participant_id":"A2CF2BD4Q0ZDJN"},{"rt":null,"stimulus":"stimuli/38.jpg","button_pressed":null,"trial_type":"image-button-response","trial_index":108,"time_elapsed":368392,"internal_node_id":"0.0-108.0","participant_id":"A2CF2BD4Q0ZDJN"},{"rt":1719,"stimulus":"stimuli/38.jpg","button_pressed":"0","trial_type":"image-button-response","trial_index":109,"time_elapsed":370112,"internal_node_id":"0.0-109.0","participant_id":"A2CF2BD4Q0ZDJN"},{"rt":2924,"response":"34","trial_type":"image-slider-response","trial_index":110,"time_elapsed":373038,"internal_node_id":"0.0-110.0","participant_id":"A2CF2BD4Q0ZDJN"},{"rt":2285,"stimulus":"stimuli/38.jpg","button_pressed":"1","trial_type":"image-button-response","trial_index":111,"time_elapsed":375325,"internal_node_id":"0.0-111.0","participant_id":"A2CF2BD4Q0ZDJN"},{"rt":6375,"responses":"{\"Q0\":\"course\"}","trial_type":"survey-text","trial_index":112,"time_elapsed":381702,"internal_node_id":"0.0-112.0-0.0","participant_id":"A2CF2BD4Q0ZDJN"},{"rt":null,"stimulus":"<p style=\"font-size: 48px;\">+</p>","key_press":null,"Name":"fixation","trial_type":"html-keyboard-response","trial_index":113,"time_elapsed":382203,"internal_node_id":"0.0-113.0","participant_id":"A2CF2BD4Q0ZDJN"},{"rt":null,"stimulus":"stimuli/53.jpg","button_pressed":null,"trial_type":"image-button-response","trial_index":114,"time_elapsed":387204,"internal_node_id":"0.0-114.0","participant_id":"A2CF2BD4Q0ZDJN"},{"rt":1408,"stimulus":"stimuli/53.jpg","button_pressed":"0","trial_type":"image-button-response","trial_index":115,"time_elapsed":388614,"internal_node_id":"0.0-115.0","participant_id":"A2CF2BD4Q0ZDJN"},{"rt":2695,"response":"51","trial_type":"image-slider-response","trial_index":116,"time_elapsed":391311,"internal_node_id":"0.0-116.0","participant_id":"A2CF2BD4Q0ZDJN"},{"rt":2052,"stimulus":"stimuli/53.jpg","button_pressed":"1","trial_type":"image-button-response","trial_index":117,"time_elapsed":393374,"internal_node_id":"0.0-117.0","participant_id":"A2CF2BD4Q0ZDJN"},{"rt":null,"stimulus":"<p style=\"font-size: 48px;\">+</p>","key_press":null,"Name":"fixation","trial_type":"html-keyboard-response","trial_index":118,"time_elapsed":393958,"internal_node_id":"0.0-118.0","participant_id":"A2CF2BD4Q0ZDJN"},{"rt":null,"stimulus":"stimuli/50.jpg","button_pressed":null,"trial_type":"image-button-response","trial_index":119,"time_elapsed":398966,"internal_node_id":"0.0-119.0","participant_id":"A2CF2BD4Q0ZDJN"},{"rt":1566,"stimulus":"stimuli/50.jpg","button_pressed":"0","trial_type":"image-button-response","trial_index":120,"time_elapsed":400533,"internal_node_id":"0.0-120.0","participant_id":"A2CF2BD4Q0ZDJN"},{"rt":4822,"response":"50","trial_type":"image-slider-response","trial_index":121,"time_elapsed":405356,"internal_node_id":"0.0-121.0","participant_id":"A2CF2BD4Q0ZDJN"},{"rt":1262,"stimulus":"stimuli/50.jpg","button_pressed":"0","trial_type":"image-button-response","trial_index":122,"time_elapsed":406621,"internal_node_id":"0.0-122.0","participant_id":"A2CF2BD4Q0ZDJN"},{"rt":null,"stimulus":"<p style=\"font-size: 48px;\">+</p>","key_press":null,"Name":"fixation","trial_type":"html-keyboard-response","trial_index":123,"time_elapsed":408122,"internal_node_id":"0.0-123.0","participant_id":"A2CF2BD4Q0ZDJN"},{"rt":null,"stimulus":"stimuli/17.jpg","button_pressed":null,"trial_type":"image-button-response","trial_index":124,"time_elapsed":413123,"internal_node_id":"0.0-124.0","participant_id":"A2CF2BD4Q0ZDJN"},{"rt":2568,"stimulus":"stimuli/17.jpg","button_pressed":"2","trial_type":"image-button-response","trial_index":125,"time_elapsed":415693,"internal_node_id":"0.0-125.0","participant_id":"A2CF2BD4Q0ZDJN"},{"rt":3599,"response":"16","trial_type":"image-slider-response","trial_index":126,"time_elapsed":419293,"internal_node_id":"0.0-126.0","participant_id":"A2CF2BD4Q0ZDJN"},{"rt":9591,"stimulus":"stimuli/17.jpg","button_pressed":"2","trial_type":"image-button-response","trial_index":127,"time_elapsed":428885,"internal_node_id":"0.0-127.0","participant_id":"A2CF2BD4Q0ZDJN"},{"rt":null,"stimulus":"<p style=\"font-size: 48px;\">+</p>","key_press":null,"Name":"fixation","trial_type":"html-keyboard-response","trial_index":128,"time_elapsed":430385,"internal_node_id":"0.0-128.0","participant_id":"A2CF2BD4Q0ZDJN"},{"rt":null,"stimulus":"stimuli/1.jpg","button_pressed":null,"trial_type":"image-button-response","trial_index":129,"time_elapsed":435386,"internal_node_id":"0.0-129.0","participant_id":"A2CF2BD4Q0ZDJN"},{"rt":1474,"stimulus":"stimuli/1.jpg","button_pressed":"0","trial_type":"image-button-response","trial_index":130,"time_elapsed":436863,"internal_node_id":"0.0-130.0","participant_id":"A2CF2BD4Q0ZDJN"},{"rt":2962,"response":"34","trial_type":"image-slider-response","trial_index":131,"time_elapsed":439828,"internal_node_id":"0.0-131.0","participant_id":"A2CF2BD4Q0ZDJN"},{"rt":3982,"stimulus":"stimuli/1.jpg","button_pressed":"0","trial_type":"image-button-response","trial_index":132,"time_elapsed":443813,"internal_node_id":"0.0-132.0","participant_id":"A2CF2BD4Q0ZDJN"},{"rt":null,"stimulus":"<p style=\"font-size: 48px;\">+</p>","key_press":null,"Name":"fixation","trial_type":"html-keyboard-response","trial_index":133,"time_elapsed":445313,"internal_node_id":"0.0-133.0","participant_id":"A2CF2BD4Q0ZDJN"},{"rt":null,"stimulus":"stimuli/3.jpg","button_pressed":null,"trial_type":"image-button-response","trial_index":134,"time_elapsed":450315,"internal_node_id":"0.0-134.0","participant_id":"A2CF2BD4Q0ZDJN"},{"rt":1225,"stimulus":"stimuli/3.jpg","button_pressed":"0","trial_type":"image-button-response","trial_index":135,"time_elapsed":451541,"internal_node_id":"0.0-135.0","participant_id":"A2CF2BD4Q0ZDJN"},{"rt":2854,"response":"56","trial_type":"image-slider-response","trial_index":136,"time_elapsed":454397,"internal_node_id":"0.0-136.0","participant_id":"A2CF2BD4Q0ZDJN"},{"rt":902,"stimulus":"stimuli/3.jpg","button_pressed":"0","trial_type":"image-button-response","trial_index":137,"time_elapsed":455301,"internal_node_id":"0.0-137.0","participant_id":"A2CF2BD4Q0ZDJN"},{"rt":4918,"responses":"{\"Q0\":\"we\"}","trial_type":"survey-text","trial_index":138,"time_elapsed":460221,"internal_node_id":"0.0-138.0-0.0","participant_id":"A2CF2BD4Q0ZDJN"},{"rt":null,"stimulus":"<p style=\"font-size: 48px;\">+</p>","key_press":null,"Name":"fixation","trial_type":"html-keyboard-response","trial_index":139,"time_elapsed":460721,"internal_node_id":"0.0-139.0","participant_id":"A2CF2BD4Q0ZDJN"},{"rt":null,"stimulus":"stimuli/66.jpg","button_pressed":null,"trial_type":"image-button-response","trial_index":140,"time_elapsed":465723,"internal_node_id":"0.0-140.0","participant_id":"A2CF2BD4Q0ZDJN"},{"rt":1320,"stimulus":"stimuli/66.jpg","button_pressed":"0","trial_type":"image-button-response","trial_index":141,"time_elapsed":467044,"internal_node_id":"0.0-141.0","participant_id":"A2CF2BD4Q0ZDJN"},{"rt":3151,"response":"55","trial_type":"image-slider-response","trial_index":142,"time_elapsed":470196,"internal_node_id":"0.0-142.0","participant_id":"A2CF2BD4Q0ZDJN"},{"rt":2262,"stimulus":"stimuli/66.jpg","button_pressed":"0","trial_type":"image-button-response","trial_index":143,"time_elapsed":472460,"internal_node_id":"0.0-143.0","participant_id":"A2CF2BD4Q0ZDJN"},{"rt":null,"stimulus":"<p style=\"font-size: 48px;\">+</p>","key_press":null,"Name":"fixation","trial_type":"html-keyboard-response","trial_index":144,"time_elapsed":472962,"internal_node_id":"0.0-144.0","participant_id":"A2CF2BD4Q0ZDJN"},{"rt":null,"stimulus":"stimuli/11.jpg","button_pressed":null,"trial_type":"image-button-response","trial_index":145,"time_elapsed":477963,"internal_node_id":"0.0-145.0","participant_id":"A2CF2BD4Q0ZDJN"},{"rt":3145,"stimulus":"stimuli/11.jpg","button_pressed":"0","trial_type":"image-button-response","trial_index":146,"time_elapsed":481108,"internal_node_id":"0.0-146.0","participant_id":"A2CF2BD4Q0ZDJN"},{"rt":10902,"response":"36","trial_type":"image-slider-response","trial_index":147,"time_elapsed":492012,"internal_node_id":"0.0-147.0","participant_id":"A2CF2BD4Q0ZDJN"},{"rt":1095,"stimulus":"stimuli/11.jpg","button_pressed":"0","trial_type":"image-button-response","trial_index":148,"time_elapsed":493108,"internal_node_id":"0.0-148.0","participant_id":"A2CF2BD4Q0ZDJN"},{"rt":null,"stimulus":"<p style=\"font-size: 48px;\">+</p>","key_press":null,"Name":"fixation","trial_type":"html-keyboard-response","trial_index":149,"time_elapsed":494610,"internal_node_id":"0.0-149.0","participant_id":"A2CF2BD4Q0ZDJN"},{"rt":null,"stimulus":"stimuli/30.jpg","button_pressed":null,"trial_type":"image-button-response","trial_index":150,"time_elapsed":499610,"internal_node_id":"0.0-150.0","participant_id":"A2CF2BD4Q0ZDJN"},{"rt":1273,"stimulus":"stimuli/30.jpg","button_pressed":"0","trial_type":"image-button-response","trial_index":151,"time_elapsed":500884,"internal_node_id":"0.0-151.0","participant_id":"A2CF2BD4Q0ZDJN"},{"rt":2991,"response":"44","trial_type":"image-slider-response","trial_index":152,"time_elapsed":503876,"internal_node_id":"0.0-152.0","participant_id":"A2CF2BD4Q0ZDJN"},{"rt":1254,"stimulus":"stimuli/30.jpg","button_pressed":"0","trial_type":"image-button-response","trial_index":153,"time_elapsed":505132,"internal_node_id":"0.0-153.0","participant_id":"A2CF2BD4Q0ZDJN"},{"rt":null,"stimulus":"<p style=\"font-size: 48px;\">+</p>","key_press":null,"Name":"fixation","trial_type":"html-keyboard-response","trial_index":154,"time_elapsed":506633,"internal_node_id":"0.0-154.0","participant_id":"A2CF2BD4Q0ZDJN"},{"rt":null,"stimulus":"stimuli/71.jpg","button_pressed":null,"trial_type":"image-button-response","trial_index":155,"time_elapsed":511634,"internal_node_id":"0.0-155.0","participant_id":"A2CF2BD4Q0ZDJN"},{"rt":2161,"stimulus":"stimuli/71.jpg","button_pressed":"0","trial_type":"image-button-response","trial_index":156,"time_elapsed":513797,"internal_node_id":"0.0-156.0","participant_id":"A2CF2BD4Q0ZDJN"},{"rt":2750,"response":"54","trial_type":"image-slider-response","trial_index":157,"time_elapsed":516549,"internal_node_id":"0.0-157.0","participant_id":"A2CF2BD4Q0ZDJN"},{"rt":1455,"stimulus":"stimuli/71.jpg","button_pressed":"1","trial_type":"image-button-response","trial_index":158,"time_elapsed":518006,"internal_node_id":"0.0-158.0","participant_id":"A2CF2BD4Q0ZDJN"},{"rt":null,"stimulus":"<p style=\"font-size: 48px;\">+</p>","key_press":null,"Name":"fixation","trial_type":"html-keyboard-response","trial_index":159,"time_elapsed":519507,"internal_node_id":"0.0-159.0","participant_id":"A2CF2BD4Q0ZDJN"},{"rt":null,"stimulus":"stimuli/61.jpg","button_pressed":null,"trial_type":"image-button-response","trial_index":160,"time_elapsed":524509,"internal_node_id":"0.0-160.0","participant_id":"A2CF2BD4Q0ZDJN"},{"rt":1511,"stimulus":"stimuli/61.jpg","button_pressed":"0","trial_type":"image-button-response","trial_index":161,"time_elapsed":526020,"internal_node_id":"0.0-161.0","participant_id":"A2CF2BD4Q0ZDJN"},{"rt":2463,"response":"37","trial_type":"image-slider-response","trial_index":162,"time_elapsed":528484,"internal_node_id":"0.0-162.0","participant_id":"A2CF2BD4Q0ZDJN"},{"rt":2782,"stimulus":"stimuli/61.jpg","button_pressed":"0","trial_type":"image-button-response","trial_index":163,"time_elapsed":531267,"internal_node_id":"0.0-163.0","participant_id":"A2CF2BD4Q0ZDJN"},{"rt":4598,"stimulus":"stimuli/ins/Slide8.JPG","button_pressed":"0","trial_type":"image-button-response","trial_index":164,"time_elapsed":535868,"internal_node_id":"0.0-164.0","participant_id":"A2CF2BD4Q0ZDJN"}]