[{"rt":5797,"responses":"{\"Q0\":\"A2GA29WTMFW2W\"}","trial_type":"survey-text","trial_index":0,"time_elapsed":5800,"internal_node_id":"0.0-0.0-0.0","participant_id":"A2GA29WTMFW2W"},{"rt":3301,"stimulus":"stimuli/ins/Slide1.JPG","button_pressed":"0","Name":"instructions","trial_type":"image-button-response","trial_index":1,"time_elapsed":9104,"internal_node_id":"0.0-1.0","participant_id":"A2GA29WTMFW2W"},{"rt":2895,"stimulus":"stimuli/ins/Slide2.JPG","button_pressed":"0","Name":"instructions","trial_type":"image-button-response","trial_index":2,"time_elapsed":12000,"internal_node_id":"0.0-2.0","participant_id":"A2GA29WTMFW2W"},{"rt":4815,"stimulus":"stimuli/ins/Slide3.JPG","button_pressed":"0","Name":"instructions","trial_type":"image-button-response","trial_index":3,"time_elapsed":16816,"internal_node_id":"0.0-3.0","participant_id":"A2GA29WTMFW2W"},{"rt":6639,"stimulus":"stimuli/ins/Slide4.JPG","button_pressed":"0","Name":"instructions","trial_type":"image-button-response","trial_index":4,"time_elapsed":23456,"internal_node_id":"0.0-4.0","participant_id":"A2GA29WTMFW2W"},{"rt":5102,"stimulus":"stimuli/ins/Slide5.JPG","button_pressed":"0","Name":"instructions","trial_type":"image-button-response","trial_index":5,"time_elapsed":28560,"internal_node_id":"0.0-5.0","participant_id":"A2GA29WTMFW2W"},{"rt":5600,"stimulus":"stimuli/ins/Slide6.JPG","button_pressed":"0","Name":"instructions","trial_type":"image-button-response","trial_index":6,"time_elapsed":34160,"internal_node_id":"0.0-6.0","participant_id":"A2GA29WTMFW2W"},{"rt":2718,"stimulus":"stimuli/ins/Slide7.JPG","button_pressed":"0","Name":"instructions","trial_type":"image-button-response","trial_index":7,"time_elapsed":36880,"internal_node_id":"0.0-7.0","participant_id":"A2GA29WTMFW2W"},{"rt":7423,"responses":"{\"Q0\":\"but\"}","trial_type":"survey-text","trial_index":8,"time_elapsed":44304,"internal_node_id":"0.0-8.0-0.0","participant_id":"A2GA29WTMFW2W"},{"rt":null,"stimulus":"<p style=\"font-size: 48px;\">+</p>","key_press":null,"Name":"fixation","trial_type":"html-keyboard-response","trial_index":9,"time_elapsed":44807,"internal_node_id":"0.0-9.0","participant_id":"A2GA29WTMFW2W"},{"rt":null,"stimulus":"stimuli/36.jpg","button_pressed":null,"trial_type":"image-button-response","trial_index":10,"time_elapsed":49810,"internal_node_id":"0.0-10.0","participant_id":"A2GA29WTMFW2W"},{"rt":1805,"stimulus":"stimuli/36.jpg","button_pressed":"0","trial_type":"image-button-response","trial_index":11,"time_elapsed":51617,"internal_node_id":"0.0-11.0","participant_id":"A2GA29WTMFW2W"},{"rt":5382,"response":"100","trial_type":"image-slider-response","trial_index":12,"time_elapsed":57001,"internal_node_id":"0.0-12.0","participant_id":"A2GA29WTMFW2W"},{"rt":2150,"stimulus":"stimuli/36.jpg","button_pressed":"1","trial_type":"image-button-response","trial_index":13,"time_elapsed":59153,"internal_node_id":"0.0-13.0","participant_id":"A2GA29WTMFW2W"},{"rt":null,"stimulus":"<p style=\"font-size: 48px;\">+</p>","key_press":null,"Name":"fixation","trial_type":"html-keyboard-response","trial_index":14,"time_elapsed":59656,"internal_node_id":"0.0-14.0","participant_id":"A2GA29WTMFW2W"},{"rt":null,"stimulus":"stimuli/57.jpg","button_pressed":null,"trial_type":"image-button-response","trial_index":15,"time_elapsed":64659,"internal_node_id":"0.0-15.0","participant_id":"A2GA29WTMFW2W"},{"rt":1108,"stimulus":"stimuli/57.jpg","button_pressed":"0","trial_type":"image-button-response","trial_index":16,"time_elapsed":65769,"internal_node_id":"0.0-16.0","participant_id":"A2GA29WTMFW2W"},{"rt":3278,"response":"100","trial_type":"image-slider-response","trial_index":17,"time_elapsed":69049,"internal_node_id":"0.0-17.0","participant_id":"A2GA29WTMFW2W"},{"rt":4614,"stimulus":"stimuli/57.jpg","button_pressed":"0","trial_type":"image-button-response","trial_index":18,"time_elapsed":73665,"internal_node_id":"0.0-18.0","participant_id":"A2GA29WTMFW2W"},{"rt":null,"stimulus":"<p style=\"font-size: 48px;\">+</p>","key_press":null,"Name":"fixation","trial_type":"html-keyboard-response","trial_index":19,"time_elapsed":74168,"internal_node_id":"0.0-19.0","participant_id":"A2GA29WTMFW2W"},{"rt":null,"stimulus":"stimuli/71.jpg","button_pressed":null,"trial_type":"image-button-response","trial_index":20,"time_elapsed":79169,"internal_node_id":"0.0-20.0","participant_id":"A2GA29WTMFW2W"},{"rt":2006,"stimulus":"stimuli/71.jpg","button_pressed":"0","trial_type":"image-button-response","trial_index":21,"time_elapsed":81177,"internal_node_id":"0.0-21.0","participant_id":"A2GA29WTMFW2W"},{"rt":2854,"response":"100","trial_type":"image-slider-response","trial_index":22,"time_elapsed":84033,"internal_node_id":"0.0-22.0","participant_id":"A2GA29WTMFW2W"},{"rt":1023,"stimulus":"stimuli/71.jpg","button_pressed":"1","trial_type":"image-button-response","trial_index":23,"time_elapsed":85057,"internal_node_id":"0.0-23.0","participant_id":"A2GA29WTMFW2W"},{"rt":null,"stimulus":"<p style=\"font-size: 48px;\">+</p>","key_press":null,"Name":"fixation","trial_type":"html-keyboard-response","trial_index":24,"time_elapsed":86558,"internal_node_id":"0.0-24.0","participant_id":"A2GA29WTMFW2W"},{"rt":null,"stimulus":"stimuli/54.jpg","button_pressed":null,"trial_type":"image-button-response","trial_index":25,"time_elapsed":91560,"internal_node_id":"0.0-25.0","participant_id":"A2GA29WTMFW2W"},{"rt":879,"stimulus":"stimuli/54.jpg","button_pressed":"0","trial_type":"image-button-response","trial_index":26,"time_elapsed":92441,"internal_node_id":"0.0-26.0","participant_id":"A2GA29WTMFW2W"},{"rt":2695,"response":"100","trial_type":"image-slider-response","trial_index":27,"time_elapsed":95137,"internal_node_id":"0.0-27.0","participant_id":"A2GA29WTMFW2W"},{"rt":4590,"stimulus":"stimuli/54.jpg","button_pressed":"0","trial_type":"image-button-response","trial_index":28,"time_elapsed":99729,"internal_node_id":"0.0-28.0","participant_id":"A2GA29WTMFW2W"},{"rt":null,"stimulus":"<p style=\"font-size: 48px;\">+</p>","key_press":null,"Name":"fixation","trial_type":"html-keyboard-response","trial_index":29,"time_elapsed":101231,"internal_node_id":"0.0-29.0","participant_id":"A2GA29WTMFW2W"},{"rt":null,"stimulus":"stimuli/5.jpg","button_pressed":null,"trial_type":"image-button-response","trial_index":30,"time_elapsed":106233,"internal_node_id":"0.0-30.0","participant_id":"A2GA29WTMFW2W"},{"rt":1239,"stimulus":"stimuli/5.jpg","button_pressed":"0","trial_type":"image-button-response","trial_index":31,"time_elapsed":107473,"internal_node_id":"0.0-31.0","participant_id":"A2GA29WTMFW2W"},{"rt":3806,"response":"100","trial_type":"image-slider-response","trial_index":32,"time_elapsed":111280,"internal_node_id":"0.0-32.0","participant_id":"A2GA29WTMFW2W"},{"rt":1600,"stimulus":"stimuli/5.jpg","button_pressed":"1","trial_type":"image-button-response","trial_index":33,"time_elapsed":112881,"internal_node_id":"0.0-33.0","participant_id":"A2GA29WTMFW2W"},{"rt":4517,"responses":"{\"Q0\":\"rock\"}","trial_type":"survey-text","trial_index":34,"time_elapsed":117400,"internal_node_id":"0.0-34.0-0.0","participant_id":"A2GA29WTMFW2W"},{"rt":null,"stimulus":"<p style=\"font-size: 48px;\">+</p>","key_press":null,"Name":"fixation","trial_type":"html-keyboard-response","trial_index":35,"time_elapsed":118900,"internal_node_id":"0.0-35.0","participant_id":"A2GA29WTMFW2W"},{"rt":null,"stimulus":"stimuli/37.jpg","button_pressed":null,"trial_type":"image-button-response","trial_index":36,"time_elapsed":123902,"internal_node_id":"0.0-36.0","participant_id":"A2GA29WTMFW2W"},{"rt":1153,"stimulus":"stimuli/37.jpg","button_pressed":"0","trial_type":"image-button-response","trial_index":37,"time_elapsed":125056,"internal_node_id":"0.0-37.0","participant_id":"A2GA29WTMFW2W"},{"rt":2863,"response":"88","trial_type":"image-slider-response","trial_index":38,"time_elapsed":127921,"internal_node_id":"0.0-38.0","participant_id":"A2GA29WTMFW2W"},{"rt":1078,"stimulus":"stimuli/37.jpg","button_pressed":"1","trial_type":"image-button-response","trial_index":39,"time_elapsed":129001,"internal_node_id":"0.0-39.0","participant_id":"A2GA29WTMFW2W"},{"rt":null,"stimulus":"<p style=\"font-size: 48px;\">+</p>","key_press":null,"Name":"fixation","trial_type":"html-keyboard-response","trial_index":40,"time_elapsed":129503,"internal_node_id":"0.0-40.0","participant_id":"A2GA29WTMFW2W"},{"rt":null,"stimulus":"stimuli/23.jpg","button_pressed":null,"trial_type":"image-button-response","trial_index":41,"time_elapsed":134504,"internal_node_id":"0.0-41.0","participant_id":"A2GA29WTMFW2W"},{"rt":982,"stimulus":"stimuli/23.jpg","button_pressed":"0","trial_type":"image-button-response","trial_index":42,"time_elapsed":135489,"internal_node_id":"0.0-42.0","participant_id":"A2GA29WTMFW2W"},{"rt":3622,"response":"89","trial_type":"image-slider-response","trial_index":43,"time_elapsed":139112,"internal_node_id":"0.0-43.0","participant_id":"A2GA29WTMFW2W"},{"rt":775,"stimulus":"stimuli/23.jpg","button_pressed":"1","trial_type":"image-button-response","trial_index":44,"time_elapsed":139889,"internal_node_id":"0.0-44.0","participant_id":"A2GA29WTMFW2W"},{"rt":null,"stimulus":"<p style=\"font-size: 48px;\">+</p>","key_press":null,"Name":"fixation","trial_type":"html-keyboard-response","trial_index":45,"time_elapsed":140890,"internal_node_id":"0.0-45.0","participant_id":"A2GA29WTMFW2W"},{"rt":null,"stimulus":"stimuli/69.jpg","button_pressed":null,"trial_type":"image-button-response","trial_index":46,"time_elapsed":145892,"internal_node_id":"0.0-46.0","participant_id":"A2GA29WTMFW2W"},{"rt":1020,"stimulus":"stimuli/69.jpg","button_pressed":"0","trial_type":"image-button-response","trial_index":47,"time_elapsed":146913,"internal_node_id":"0.0-47.0","participant_id":"A2GA29WTMFW2W"},{"rt":3614,"response":"82","trial_type":"image-slider-response","trial_index":48,"time_elapsed":150528,"internal_node_id":"0.0-48.0","participant_id":"A2GA29WTMFW2W"},{"rt":5583,"stimulus":"stimuli/69.jpg","button_pressed":"1","trial_type":"image-button-response","trial_index":49,"time_elapsed":156113,"internal_node_id":"0.0-49.0","participant_id":"A2GA29WTMFW2W"},{"rt":null,"stimulus":"<p style=\"font-size: 48px;\">+</p>","key_press":null,"Name":"fixation","trial_type":"html-keyboard-response","trial_index":50,"time_elapsed":156613,"internal_node_id":"0.0-50.0","participant_id":"A2GA29WTMFW2W"},{"rt":null,"stimulus":"stimuli/55.jpg","button_pressed":null,"trial_type":"image-button-response","trial_index":51,"time_elapsed":161616,"internal_node_id":"0.0-51.0","participant_id":"A2GA29WTMFW2W"},{"rt":1031,"stimulus":"stimuli/55.jpg","button_pressed":"0","trial_type":"image-button-response","trial_index":52,"time_elapsed":162649,"internal_node_id":"0.0-52.0","participant_id":"A2GA29WTMFW2W"},{"rt":3286,"response":"94","trial_type":"image-slider-response","trial_index":53,"time_elapsed":165936,"internal_node_id":"0.0-53.0","participant_id":"A2GA29WTMFW2W"},{"rt":3439,"stimulus":"stimuli/55.jpg","button_pressed":"0","trial_type":"image-button-response","trial_index":54,"time_elapsed":169377,"internal_node_id":"0.0-54.0","participant_id":"A2GA29WTMFW2W"},{"rt":null,"stimulus":"<p style=\"font-size: 48px;\">+</p>","key_press":null,"Name":"fixation","trial_type":"html-keyboard-response","trial_index":55,"time_elapsed":169878,"internal_node_id":"0.0-55.0","participant_id":"A2GA29WTMFW2W"},{"rt":null,"stimulus":"stimuli/38.jpg","button_pressed":null,"trial_type":"image-button-response","trial_index":56,"time_elapsed":174880,"internal_node_id":"0.0-56.0","participant_id":"A2GA29WTMFW2W"},{"rt":1080,"stimulus":"stimuli/38.jpg","button_pressed":"0","trial_type":"image-button-response","trial_index":57,"time_elapsed":175961,"internal_node_id":"0.0-57.0","participant_id":"A2GA29WTMFW2W"},{"rt":2686,"response":"85","trial_type":"image-slider-response","trial_index":58,"time_elapsed":178649,"internal_node_id":"0.0-58.0","participant_id":"A2GA29WTMFW2W"},{"rt":830,"stimulus":"stimuli/38.jpg","button_pressed":"0","trial_type":"image-button-response","trial_index":59,"time_elapsed":179481,"internal_node_id":"0.0-59.0","participant_id":"A2GA29WTMFW2W"},{"rt":3711,"responses":"{\"Q0\":\"sky\"}","trial_type":"survey-text","trial_index":60,"time_elapsed":183193,"internal_node_id":"0.0-60.0-0.0","participant_id":"A2GA29WTMFW2W"},{"rt":null,"stimulus":"<p style=\"font-size: 48px;\">+</p>","key_press":null,"Name":"fixation","trial_type":"html-keyboard-response","trial_index":61,"time_elapsed":183694,"internal_node_id":"0.0-61.0","participant_id":"A2GA29WTMFW2W"},{"rt":null,"stimulus":"stimuli/51.jpg","button_pressed":null,"trial_type":"image-button-response","trial_index":62,"time_elapsed":188696,"internal_node_id":"0.0-62.0","participant_id":"A2GA29WTMFW2W"},{"rt":951,"stimulus":"stimuli/51.jpg","button_pressed":"0","trial_type":"image-button-response","trial_index":63,"time_elapsed":189649,"internal_node_id":"0.0-63.0","participant_id":"A2GA29WTMFW2W"},{"rt":1904,"response":"100","trial_type":"image-slider-response","trial_index":64,"time_elapsed":191553,"internal_node_id":"0.0-64.0","participant_id":"A2GA29WTMFW2W"},{"rt":1046,"stimulus":"stimuli/51.jpg","button_pressed":"1","trial_type":"image-button-response","trial_index":65,"time_elapsed":192601,"internal_node_id":"0.0-65.0","participant_id":"A2GA29WTMFW2W"},{"rt":null,"stimulus":"<p style=\"font-size: 48px;\">+</p>","key_press":null,"Name":"fixation","trial_type":"html-keyboard-response","trial_index":66,"time_elapsed":194103,"internal_node_id":"0.0-66.0","participant_id":"A2GA29WTMFW2W"},{"rt":null,"stimulus":"stimuli/24.jpg","button_pressed":null,"trial_type":"image-button-response","trial_index":67,"time_elapsed":199105,"internal_node_id":"0.0-67.0","participant_id":"A2GA29WTMFW2W"},{"rt":1124,"stimulus":"stimuli/24.jpg","button_pressed":"0","trial_type":"image-button-response","trial_index":68,"time_elapsed":200233,"internal_node_id":"0.0-68.0","participant_id":"A2GA29WTMFW2W"},{"rt":2134,"response":"100","trial_type":"image-slider-response","trial_index":69,"time_elapsed":202369,"internal_node_id":"0.0-69.0","participant_id":"A2GA29WTMFW2W"},{"rt":889,"stimulus":"stimuli/24.jpg","button_pressed":"1","trial_type":"image-button-response","trial_index":70,"time_elapsed":203259,"internal_node_id":"0.0-70.0","participant_id":"A2GA29WTMFW2W"},{"rt":null,"stimulus":"<p style=\"font-size: 48px;\">+</p>","key_press":null,"Name":"fixation","trial_type":"html-keyboard-response","trial_index":71,"time_elapsed":204262,"internal_node_id":"0.0-71.0","participant_id":"A2GA29WTMFW2W"},{"rt":null,"stimulus":"stimuli/44.jpg","button_pressed":null,"trial_type":"image-button-response","trial_index":72,"time_elapsed":209263,"internal_node_id":"0.0-72.0","participant_id":"A2GA29WTMFW2W"},{"rt":1056,"stimulus":"stimuli/44.jpg","button_pressed":"0","trial_type":"image-button-response","trial_index":73,"time_elapsed":210321,"internal_node_id":"0.0-73.0","participant_id":"A2GA29WTMFW2W"},{"rt":2166,"response":"92","trial_type":"image-slider-response","trial_index":74,"time_elapsed":212488,"internal_node_id":"0.0-74.0","participant_id":"A2GA29WTMFW2W"},{"rt":1127,"stimulus":"stimuli/44.jpg","button_pressed":"1","trial_type":"image-button-response","trial_index":75,"time_elapsed":213617,"internal_node_id":"0.0-75.0","participant_id":"A2GA29WTMFW2W"},{"rt":null,"stimulus":"<p style=\"font-size: 48px;\">+</p>","key_press":null,"Name":"fixation","trial_type":"html-keyboard-response","trial_index":76,"time_elapsed":215120,"internal_node_id":"0.0-76.0","participant_id":"A2GA29WTMFW2W"},{"rt":null,"stimulus":"stimuli/53.jpg","button_pressed":null,"trial_type":"image-button-response","trial_index":77,"time_elapsed":220122,"internal_node_id":"0.0-77.0","participant_id":"A2GA29WTMFW2W"},{"rt":990,"stimulus":"stimuli/53.jpg","button_pressed":"0","trial_type":"image-button-response","trial_index":78,"time_elapsed":221113,"internal_node_id":"0.0-78.0","participant_id":"A2GA29WTMFW2W"},{"rt":2622,"response":"100","trial_type":"image-slider-response","trial_index":79,"time_elapsed":223737,"internal_node_id":"0.0-79.0","participant_id":"A2GA29WTMFW2W"},{"rt":1863,"stimulus":"stimuli/53.jpg","button_pressed":"0","trial_type":"image-button-response","trial_index":80,"time_elapsed":225601,"internal_node_id":"0.0-80.0","participant_id":"A2GA29WTMFW2W"},{"rt":null,"stimulus":"<p style=\"font-size: 48px;\">+</p>","key_press":null,"Name":"fixation","trial_type":"html-keyboard-response","trial_index":81,"time_elapsed":227103,"internal_node_id":"0.0-81.0","participant_id":"A2GA29WTMFW2W"},{"rt":null,"stimulus":"stimuli/45.jpg","button_pressed":null,"trial_type":"image-button-response","trial_index":82,"time_elapsed":232106,"internal_node_id":"0.0-82.0","participant_id":"A2GA29WTMFW2W"},{"rt":1150,"stimulus":"stimuli/45.jpg","button_pressed":"0","trial_type":"image-button-response","trial_index":83,"time_elapsed":233258,"internal_node_id":"0.0-83.0","participant_id":"A2GA29WTMFW2W"},{"rt":2718,"response":"87","trial_type":"image-slider-response","trial_index":84,"time_elapsed":235977,"internal_node_id":"0.0-84.0","participant_id":"A2GA29WTMFW2W"},{"rt":743,"stimulus":"stimuli/45.jpg","button_pressed":"1","trial_type":"image-button-response","trial_index":85,"time_elapsed":236721,"internal_node_id":"0.0-85.0","participant_id":"A2GA29WTMFW2W"},{"rt":5743,"responses":"{\"Q0\":\"our\"}","trial_type":"survey-text","trial_index":86,"time_elapsed":242465,"internal_node_id":"0.0-86.0-0.0","participant_id":"A2GA29WTMFW2W"},{"rt":null,"stimulus":"<p style=\"font-size: 48px;\">+</p>","key_press":null,"Name":"fixation","trial_type":"html-keyboard-response","trial_index":87,"time_elapsed":242967,"internal_node_id":"0.0-87.0","participant_id":"A2GA29WTMFW2W"},{"rt":null,"stimulus":"stimuli/48.jpg","button_pressed":null,"trial_type":"image-button-response","trial_index":88,"time_elapsed":247969,"internal_node_id":"0.0-88.0","participant_id":"A2GA29WTMFW2W"},{"rt":992,"stimulus":"stimuli/48.jpg","button_pressed":"0","trial_type":"image-button-response","trial_index":89,"time_elapsed":248961,"internal_node_id":"0.0-89.0","participant_id":"A2GA29WTMFW2W"},{"rt":2399,"response":"85","trial_type":"image-slider-response","trial_index":90,"time_elapsed":251361,"internal_node_id":"0.0-90.0","participant_id":"A2GA29WTMFW2W"},{"rt":831,"stimulus":"stimuli/48.jpg","button_pressed":"0","trial_type":"image-button-response","trial_index":91,"time_elapsed":252193,"internal_node_id":"0.0-91.0","participant_id":"A2GA29WTMFW2W"},{"rt":null,"stimulus":"<p style=\"font-size: 48px;\">+</p>","key_press":null,"Name":"fixation","trial_type":"html-keyboard-response","trial_index":92,"time_elapsed":253194,"internal_node_id":"0.0-92.0","participant_id":"A2GA29WTMFW2W"},{"rt":null,"stimulus":"stimuli/35.jpg","button_pressed":null,"trial_type":"image-button-response","trial_index":93,"time_elapsed":258197,"internal_node_id":"0.0-93.0","participant_id":"A2GA29WTMFW2W"},{"rt":1028,"stimulus":"stimuli/35.jpg","button_pressed":"0","trial_type":"image-button-response","trial_index":94,"time_elapsed":259225,"internal_node_id":"0.0-94.0","participant_id":"A2GA29WTMFW2W"},{"rt":2991,"response":"89","trial_type":"image-slider-response","trial_index":95,"time_elapsed":262217,"internal_node_id":"0.0-95.0","participant_id":"A2GA29WTMFW2W"},{"rt":2287,"stimulus":"stimuli/35.jpg","button_pressed":"0","trial_type":"image-button-response","trial_index":96,"time_elapsed":264505,"internal_node_id":"0.0-96.0","participant_id":"A2GA29WTMFW2W"},{"rt":null,"stimulus":"<p style=\"font-size: 48px;\">+</p>","key_press":null,"Name":"fixation","trial_type":"html-keyboard-response","trial_index":97,"time_elapsed":266008,"internal_node_id":"0.0-97.0","participant_id":"A2GA29WTMFW2W"},{"rt":null,"stimulus":"stimuli/70.jpg","button_pressed":null,"trial_type":"image-button-response","trial_index":98,"time_elapsed":271009,"internal_node_id":"0.0-98.0","participant_id":"A2GA29WTMFW2W"},{"rt":1231,"stimulus":"stimuli/70.jpg","button_pressed":"0","trial_type":"image-button-response","trial_index":99,"time_elapsed":272241,"internal_node_id":"0.0-99.0","participant_id":"A2GA29WTMFW2W"},{"rt":2503,"response":"100","trial_type":"image-slider-response","trial_index":100,"time_elapsed":274745,"internal_node_id":"0.0-100.0","participant_id":"A2GA29WTMFW2W"},{"rt":1095,"stimulus":"stimuli/70.jpg","button_pressed":"1","trial_type":"image-button-response","trial_index":101,"time_elapsed":275841,"internal_node_id":"0.0-101.0","participant_id":"A2GA29WTMFW2W"},{"rt":null,"stimulus":"<p style=\"font-size: 48px;\">+</p>","key_press":null,"Name":"fixation","trial_type":"html-keyboard-response","trial_index":102,"time_elapsed":276343,"internal_node_id":"0.0-102.0","participant_id":"A2GA29WTMFW2W"},{"rt":null,"stimulus":"stimuli/2.jpg","button_pressed":null,"trial_type":"image-button-response","trial_index":103,"time_elapsed":281345,"internal_node_id":"0.0-103.0","participant_id":"A2GA29WTMFW2W"},{"rt":1158,"stimulus":"stimuli/2.jpg","button_pressed":"0","trial_type":"image-button-response","trial_index":104,"time_elapsed":282505,"internal_node_id":"0.0-104.0","participant_id":"A2GA29WTMFW2W"},{"rt":2055,"response":"100","trial_type":"image-slider-response","trial_index":105,"time_elapsed":284561,"internal_node_id":"0.0-105.0","participant_id":"A2GA29WTMFW2W"},{"rt":1511,"stimulus":"stimuli/2.jpg","button_pressed":"0","trial_type":"image-button-response","trial_index":106,"time_elapsed":286073,"internal_node_id":"0.0-106.0","participant_id":"A2GA29WTMFW2W"},{"rt":null,"stimulus":"<p style=\"font-size: 48px;\">+</p>","key_press":null,"Name":"fixation","trial_type":"html-keyboard-response","trial_index":107,"time_elapsed":287575,"internal_node_id":"0.0-107.0","participant_id":"A2GA29WTMFW2W"},{"rt":null,"stimulus":"stimuli/21.jpg","button_pressed":null,"trial_type":"image-button-response","trial_index":108,"time_elapsed":292577,"internal_node_id":"0.0-108.0","participant_id":"A2GA29WTMFW2W"},{"rt":911,"stimulus":"stimuli/21.jpg","button_pressed":"0","trial_type":"image-button-response","trial_index":109,"time_elapsed":293489,"internal_node_id":"0.0-109.0","participant_id":"A2GA29WTMFW2W"},{"rt":2630,"response":"90","trial_type":"image-slider-response","trial_index":110,"time_elapsed":296121,"internal_node_id":"0.0-110.0","participant_id":"A2GA29WTMFW2W"},{"rt":863,"stimulus":"stimuli/21.jpg","button_pressed":"0","trial_type":"image-button-response","trial_index":111,"time_elapsed":296985,"internal_node_id":"0.0-111.0","participant_id":"A2GA29WTMFW2W"},{"rt":7766,"responses":"{\"Q0\":\"course\"}","trial_type":"survey-text","trial_index":112,"time_elapsed":304753,"internal_node_id":"0.0-112.0-0.0","participant_id":"A2GA29WTMFW2W"},{"rt":null,"stimulus":"<p style=\"font-size: 48px;\">+</p>","key_press":null,"Name":"fixation","trial_type":"html-keyboard-response","trial_index":113,"time_elapsed":305755,"internal_node_id":"0.0-113.0","participant_id":"A2GA29WTMFW2W"},{"rt":null,"stimulus":"stimuli/47.jpg","button_pressed":null,"trial_type":"image-button-response","trial_index":114,"time_elapsed":310757,"internal_node_id":"0.0-114.0","participant_id":"A2GA29WTMFW2W"},{"rt":1244,"stimulus":"stimuli/47.jpg","button_pressed":"0","trial_type":"image-button-response","trial_index":115,"time_elapsed":312001,"internal_node_id":"0.0-115.0","participant_id":"A2GA29WTMFW2W"},{"rt":3495,"response":"81","trial_type":"image-slider-response","trial_index":116,"time_elapsed":315497,"internal_node_id":"0.0-116.0","participant_id":"A2GA29WTMFW2W"},{"rt":967,"stimulus":"stimuli/47.jpg","button_pressed":"0","trial_type":"image-button-response","trial_index":117,"time_elapsed":316465,"internal_node_id":"0.0-117.0","participant_id":"A2GA29WTMFW2W"},{"rt":null,"stimulus":"<p style=\"font-size: 48px;\">+</p>","key_press":null,"Name":"fixation","trial_type":"html-keyboard-response","trial_index":118,"time_elapsed":316967,"internal_node_id":"0.0-118.0","participant_id":"A2GA29WTMFW2W"},{"rt":null,"stimulus":"stimuli/49.jpg","button_pressed":null,"trial_type":"image-button-response","trial_index":119,"time_elapsed":321969,"internal_node_id":"0.0-119.0","participant_id":"A2GA29WTMFW2W"},{"rt":999,"stimulus":"stimuli/49.jpg","button_pressed":"0","trial_type":"image-button-response","trial_index":120,"time_elapsed":322969,"internal_node_id":"0.0-120.0","participant_id":"A2GA29WTMFW2W"},{"rt":2327,"response":"83","trial_type":"image-slider-response","trial_index":121,"time_elapsed":325297,"internal_node_id":"0.0-121.0","participant_id":"A2GA29WTMFW2W"},{"rt":704,"stimulus":"stimuli/49.jpg","button_pressed":"0","trial_type":"image-button-response","trial_index":122,"time_elapsed":326002,"internal_node_id":"0.0-122.0","participant_id":"A2GA29WTMFW2W"},{"rt":null,"stimulus":"<p style=\"font-size: 48px;\">+</p>","key_press":null,"Name":"fixation","trial_type":"html-keyboard-response","trial_index":123,"time_elapsed":327503,"internal_node_id":"0.0-123.0","participant_id":"A2GA29WTMFW2W"},{"rt":null,"stimulus":"stimuli/20.jpg","button_pressed":null,"trial_type":"image-button-response","trial_index":124,"time_elapsed":332506,"internal_node_id":"0.0-124.0","participant_id":"A2GA29WTMFW2W"},{"rt":2622,"stimulus":"stimuli/20.jpg","button_pressed":"0","trial_type":"image-button-response","trial_index":125,"time_elapsed":335130,"internal_node_id":"0.0-125.0","participant_id":"A2GA29WTMFW2W"},{"rt":3453,"response":"100","trial_type":"image-slider-response","trial_index":126,"time_elapsed":338585,"internal_node_id":"0.0-126.0","participant_id":"A2GA29WTMFW2W"},{"rt":6031,"stimulus":"stimuli/20.jpg","button_pressed":"1","trial_type":"image-button-response","trial_index":127,"time_elapsed":344617,"internal_node_id":"0.0-127.0","participant_id":"A2GA29WTMFW2W"},{"rt":null,"stimulus":"<p style=\"font-size: 48px;\">+</p>","key_press":null,"Name":"fixation","trial_type":"html-keyboard-response","trial_index":128,"time_elapsed":345618,"internal_node_id":"0.0-128.0","participant_id":"A2GA29WTMFW2W"},{"rt":null,"stimulus":"stimuli/19.jpg","button_pressed":null,"trial_type":"image-button-response","trial_index":129,"time_elapsed":350620,"internal_node_id":"0.0-129.0","participant_id":"A2GA29WTMFW2W"},{"rt":892,"stimulus":"stimuli/19.jpg","button_pressed":"0","trial_type":"image-button-response","trial_index":130,"time_elapsed":351513,"internal_node_id":"0.0-130.0","participant_id":"A2GA29WTMFW2W"},{"rt":2735,"response":"95","trial_type":"image-slider-response","trial_index":131,"time_elapsed":354249,"internal_node_id":"0.0-131.0","participant_id":"A2GA29WTMFW2W"},{"rt":775,"stimulus":"stimuli/19.jpg","button_pressed":"0","trial_type":"image-button-response","trial_index":132,"time_elapsed":355025,"internal_node_id":"0.0-132.0","participant_id":"A2GA29WTMFW2W"},{"rt":null,"stimulus":"<p style=\"font-size: 48px;\">+</p>","key_press":null,"Name":"fixation","trial_type":"html-keyboard-response","trial_index":133,"time_elapsed":356028,"internal_node_id":"0.0-133.0","participant_id":"A2GA29WTMFW2W"},{"rt":null,"stimulus":"stimuli/28.jpg","button_pressed":null,"trial_type":"image-button-response","trial_index":134,"time_elapsed":361030,"internal_node_id":"0.0-134.0","participant_id":"A2GA29WTMFW2W"},{"rt":1400,"stimulus":"stimuli/28.jpg","button_pressed":"0","trial_type":"image-button-response","trial_index":135,"time_elapsed":362433,"internal_node_id":"0.0-135.0","participant_id":"A2GA29WTMFW2W"},{"rt":3476,"response":"98","trial_type":"image-slider-response","trial_index":136,"time_elapsed":365913,"internal_node_id":"0.0-136.0","participant_id":"A2GA29WTMFW2W"},{"rt":823,"stimulus":"stimuli/28.jpg","button_pressed":"0","trial_type":"image-button-response","trial_index":137,"time_elapsed":366737,"internal_node_id":"0.0-137.0","participant_id":"A2GA29WTMFW2W"},{"rt":3926,"responses":"{\"Q0\":\"we\"}","trial_type":"survey-text","trial_index":138,"time_elapsed":370665,"internal_node_id":"0.0-138.0-0.0","participant_id":"A2GA29WTMFW2W"},{"rt":null,"stimulus":"<p style=\"font-size: 48px;\">+</p>","key_press":null,"Name":"fixation","trial_type":"html-keyboard-response","trial_index":139,"time_elapsed":372166,"internal_node_id":"0.0-139.0","participant_id":"A2GA29WTMFW2W"},{"rt":null,"stimulus":"stimuli/43.jpg","button_pressed":null,"trial_type":"image-button-response","trial_index":140,"time_elapsed":377168,"internal_node_id":"0.0-140.0","participant_id":"A2GA29WTMFW2W"},{"rt":1272,"stimulus":"stimuli/43.jpg","button_pressed":"0","trial_type":"image-button-response","trial_index":141,"time_elapsed":378442,"internal_node_id":"0.0-141.0","participant_id":"A2GA29WTMFW2W"},{"rt":2414,"response":"87","trial_type":"image-slider-response","trial_index":142,"time_elapsed":380857,"internal_node_id":"0.0-142.0","participant_id":"A2GA29WTMFW2W"},{"rt":1231,"stimulus":"stimuli/43.jpg","button_pressed":"1","trial_type":"image-button-response","trial_index":143,"time_elapsed":382089,"internal_node_id":"0.0-143.0","participant_id":"A2GA29WTMFW2W"},{"rt":null,"stimulus":"<p style=\"font-size: 48px;\">+</p>","key_press":null,"Name":"fixation","trial_type":"html-keyboard-response","trial_index":144,"time_elapsed":382590,"internal_node_id":"0.0-144.0","participant_id":"A2GA29WTMFW2W"},{"rt":null,"stimulus":"stimuli/42.jpg","button_pressed":null,"trial_type":"image-button-response","trial_index":145,"time_elapsed":387591,"internal_node_id":"0.0-145.0","participant_id":"A2GA29WTMFW2W"},{"rt":1113,"stimulus":"stimuli/42.jpg","button_pressed":"0","trial_type":"image-button-response","trial_index":146,"time_elapsed":388705,"internal_node_id":"0.0-146.0","participant_id":"A2GA29WTMFW2W"},{"rt":3406,"response":"76","trial_type":"image-slider-response","trial_index":147,"time_elapsed":392113,"internal_node_id":"0.0-147.0","participant_id":"A2GA29WTMFW2W"},{"rt":1920,"stimulus":"stimuli/42.jpg","button_pressed":"0","trial_type":"image-button-response","trial_index":148,"time_elapsed":394034,"internal_node_id":"0.0-148.0","participant_id":"A2GA29WTMFW2W"},{"rt":null,"stimulus":"<p style=\"font-size: 48px;\">+</p>","key_press":null,"Name":"fixation","trial_type":"html-keyboard-response","trial_index":149,"time_elapsed":394535,"internal_node_id":"0.0-149.0","participant_id":"A2GA29WTMFW2W"},{"rt":null,"stimulus":"stimuli/61.jpg","button_pressed":null,"trial_type":"image-button-response","trial_index":150,"time_elapsed":399538,"internal_node_id":"0.0-150.0","participant_id":"A2GA29WTMFW2W"},{"rt":958,"stimulus":"stimuli/61.jpg","button_pressed":"0","trial_type":"image-button-response","trial_index":151,"time_elapsed":400497,"internal_node_id":"0.0-151.0","participant_id":"A2GA29WTMFW2W"},{"rt":2399,"response":"78","trial_type":"image-slider-response","trial_index":152,"time_elapsed":402897,"internal_node_id":"0.0-152.0","participant_id":"A2GA29WTMFW2W"},{"rt":767,"stimulus":"stimuli/61.jpg","button_pressed":"0","trial_type":"image-button-response","trial_index":153,"time_elapsed":403665,"internal_node_id":"0.0-153.0","participant_id":"A2GA29WTMFW2W"},{"rt":null,"stimulus":"<p style=\"font-size: 48px;\">+</p>","key_press":null,"Name":"fixation","trial_type":"html-keyboard-response","trial_index":154,"time_elapsed":404167,"internal_node_id":"0.0-154.0","participant_id":"A2GA29WTMFW2W"},{"rt":null,"stimulus":"stimuli/29.jpg","button_pressed":null,"trial_type":"image-button-response","trial_index":155,"time_elapsed":409168,"internal_node_id":"0.0-155.0","participant_id":"A2GA29WTMFW2W"},{"rt":1119,"stimulus":"stimuli/29.jpg","button_pressed":"0","trial_type":"image-button-response","trial_index":156,"time_elapsed":410289,"internal_node_id":"0.0-156.0","participant_id":"A2GA29WTMFW2W"},{"rt":2414,"response":"78","trial_type":"image-slider-response","trial_index":157,"time_elapsed":412705,"internal_node_id":"0.0-157.0","participant_id":"A2GA29WTMFW2W"},{"rt":719,"stimulus":"stimuli/29.jpg","button_pressed":"2","trial_type":"image-button-response","trial_index":158,"time_elapsed":413425,"internal_node_id":"0.0-158.0","participant_id":"A2GA29WTMFW2W"},{"rt":null,"stimulus":"<p style=\"font-size: 48px;\">+</p>","key_press":null,"Name":"fixation","trial_type":"html-keyboard-response","trial_index":159,"time_elapsed":414426,"internal_node_id":"0.0-159.0","participant_id":"A2GA29WTMFW2W"},{"rt":null,"stimulus":"stimuli/59.jpg","button_pressed":null,"trial_type":"image-button-response","trial_index":160,"time_elapsed":419427,"internal_node_id":"0.0-160.0","participant_id":"A2GA29WTMFW2W"},{"rt":877,"stimulus":"stimuli/59.jpg","button_pressed":"0","trial_type":"image-button-response","trial_index":161,"time_elapsed":420306,"internal_node_id":"0.0-161.0","participant_id":"A2GA29WTMFW2W"},{"rt":3509,"response":"82","trial_type":"image-slider-response","trial_index":162,"time_elapsed":423817,"internal_node_id":"0.0-162.0","participant_id":"A2GA29WTMFW2W"},{"rt":784,"stimulus":"stimuli/59.jpg","button_pressed":"2","trial_type":"image-button-response","trial_index":163,"time_elapsed":424601,"internal_node_id":"0.0-163.0","participant_id":"A2GA29WTMFW2W"},{"rt":4991,"stimulus":"stimuli/ins/Slide8.JPG","button_pressed":"0","trial_type":"image-button-response","trial_index":164,"time_elapsed":429593,"internal_node_id":"0.0-164.0","participant_id":"A2GA29WTMFW2W"}]