[{"rt":12348,"responses":"{\"Q0\":\"A3GXC3VG37CQ3G\"}","trial_type":"survey-text","trial_index":0,"time_elapsed":12360,"internal_node_id":"0.0-0.0-0.0","participant_id":"A3GXC3VG37CQ3G"},{"rt":7518,"stimulus":"stimuli/ins/Slide1.JPG","button_pressed":"0","Name":"instructions","trial_type":"image-button-response","trial_index":1,"time_elapsed":19887,"internal_node_id":"0.0-1.0","participant_id":"A3GXC3VG37CQ3G"},{"rt":6264,"stimulus":"stimuli/ins/Slide2.JPG","button_pressed":"0","Name":"instructions","trial_type":"image-button-response","trial_index":2,"time_elapsed":26156,"internal_node_id":"0.0-2.0","participant_id":"A3GXC3VG37CQ3G"},{"rt":7192,"stimulus":"stimuli/ins/Slide3.JPG","button_pressed":"0","Name":"instructions","trial_type":"image-button-response","trial_index":3,"time_elapsed":33352,"internal_node_id":"0.0-3.0","participant_id":"A3GXC3VG37CQ3G"},{"rt":6197,"stimulus":"stimuli/ins/Slide4.JPG","button_pressed":"0","Name":"instructions","trial_type":"image-button-response","trial_index":4,"time_elapsed":39555,"internal_node_id":"0.0-4.0","participant_id":"A3GXC3VG37CQ3G"},{"rt":196030,"stimulus":"stimuli/ins/Slide5.JPG","button_pressed":"0","Name":"instructions","trial_type":"image-button-response","trial_index":5,"time_elapsed":235591,"internal_node_id":"0.0-5.0","participant_id":"A3GXC3VG37CQ3G"},{"rt":5585,"stimulus":"stimuli/ins/Slide6.JPG","button_pressed":"0","Name":"instructions","trial_type":"image-button-response","trial_index":6,"time_elapsed":241179,"internal_node_id":"0.0-6.0","participant_id":"A3GXC3VG37CQ3G"},{"rt":4244,"stimulus":"stimuli/ins/Slide7.JPG","button_pressed":"0","Name":"instructions","trial_type":"image-button-response","trial_index":7,"time_elapsed":245429,"internal_node_id":"0.0-7.0","participant_id":"A3GXC3VG37CQ3G"},{"rt":6540,"responses":"{\"Q0\":\"but\"}","trial_type":"survey-text","trial_index":8,"time_elapsed":251975,"internal_node_id":"0.0-8.0-0.0","participant_id":"A3GXC3VG37CQ3G"},{"rt":null,"stimulus":"<p style=\"font-size: 48px;\">+</p>","key_press":null,"Name":"fixation","trial_type":"html-keyboard-response","trial_index":9,"time_elapsed":253483,"internal_node_id":"0.0-9.0","participant_id":"A3GXC3VG37CQ3G"},{"rt":null,"stimulus":"stimuli/41.jpg","button_pressed":null,"trial_type":"image-button-response","trial_index":10,"time_elapsed":258485,"internal_node_id":"0.0-10.0","participant_id":"A3GXC3VG37CQ3G"},{"rt":3905,"stimulus":"stimuli/41.jpg","button_pressed":"0","trial_type":"image-button-response","trial_index":11,"time_elapsed":262393,"internal_node_id":"0.0-11.0","participant_id":"A3GXC3VG37CQ3G"},{"rt":7912,"response":"46","trial_type":"image-slider-response","trial_index":12,"time_elapsed":270311,"internal_node_id":"0.0-12.0","participant_id":"A3GXC3VG37CQ3G"},{"rt":9644,"stimulus":"stimuli/41.jpg","button_pressed":"1","trial_type":"image-button-response","trial_index":13,"time_elapsed":279966,"internal_node_id":"0.0-13.0","participant_id":"A3GXC3VG37CQ3G"},{"rt":null,"stimulus":"<p style=\"font-size: 48px;\">+</p>","key_press":null,"Name":"fixation","trial_type":"html-keyboard-response","trial_index":14,"time_elapsed":281472,"internal_node_id":"0.0-14.0","participant_id":"A3GXC3VG37CQ3G"},{"rt":null,"stimulus":"stimuli/45.jpg","button_pressed":null,"trial_type":"image-button-response","trial_index":15,"time_elapsed":286473,"internal_node_id":"0.0-15.0","participant_id":"A3GXC3VG37CQ3G"},{"rt":2890,"stimulus":"stimuli/45.jpg","button_pressed":"0","trial_type":"image-button-response","trial_index":16,"time_elapsed":289368,"internal_node_id":"0.0-16.0","participant_id":"A3GXC3VG37CQ3G"},{"rt":2605,"response":"73","trial_type":"image-slider-response","trial_index":17,"time_elapsed":291990,"internal_node_id":"0.0-17.0","participant_id":"A3GXC3VG37CQ3G"},{"rt":2131,"stimulus":"stimuli/45.jpg","button_pressed":"0","trial_type":"image-button-response","trial_index":18,"time_elapsed":294128,"internal_node_id":"0.0-18.0","participant_id":"A3GXC3VG37CQ3G"},{"rt":null,"stimulus":"<p style=\"font-size: 48px;\">+</p>","key_press":null,"Name":"fixation","trial_type":"html-keyboard-response","trial_index":19,"time_elapsed":294630,"internal_node_id":"0.0-19.0","participant_id":"A3GXC3VG37CQ3G"},{"rt":null,"stimulus":"stimuli/40.jpg","button_pressed":null,"trial_type":"image-button-response","trial_index":20,"time_elapsed":299829,"internal_node_id":"0.0-20.0","participant_id":"A3GXC3VG37CQ3G"},{"rt":50206,"stimulus":"stimuli/40.jpg","button_pressed":"2","trial_type":"image-button-response","trial_index":21,"time_elapsed":350311,"internal_node_id":"0.0-21.0","participant_id":"A3GXC3VG37CQ3G"},{"rt":2798,"response":"29","trial_type":"image-slider-response","trial_index":22,"time_elapsed":353114,"internal_node_id":"0.0-22.0","participant_id":"A3GXC3VG37CQ3G"},{"rt":8233,"stimulus":"stimuli/40.jpg","button_pressed":"6","trial_type":"image-button-response","trial_index":23,"time_elapsed":361351,"internal_node_id":"0.0-23.0","participant_id":"A3GXC3VG37CQ3G"},{"rt":null,"stimulus":"<p style=\"font-size: 48px;\">+</p>","key_press":null,"Name":"fixation","trial_type":"html-keyboard-response","trial_index":24,"time_elapsed":361854,"internal_node_id":"0.0-24.0","participant_id":"A3GXC3VG37CQ3G"},{"rt":null,"stimulus":"stimuli/61.jpg","button_pressed":null,"trial_type":"image-button-response","trial_index":25,"time_elapsed":366856,"internal_node_id":"0.0-25.0","participant_id":"A3GXC3VG37CQ3G"},{"rt":4590,"stimulus":"stimuli/61.jpg","button_pressed":"0","trial_type":"image-button-response","trial_index":26,"time_elapsed":371451,"internal_node_id":"0.0-26.0","participant_id":"A3GXC3VG37CQ3G"},{"rt":5204,"response":"54","trial_type":"image-slider-response","trial_index":27,"time_elapsed":376660,"internal_node_id":"0.0-27.0","participant_id":"A3GXC3VG37CQ3G"},{"rt":2946,"stimulus":"stimuli/61.jpg","button_pressed":"0","trial_type":"image-button-response","trial_index":28,"time_elapsed":379610,"internal_node_id":"0.0-28.0","participant_id":"A3GXC3VG37CQ3G"},{"rt":null,"stimulus":"<p style=\"font-size: 48px;\">+</p>","key_press":null,"Name":"fixation","trial_type":"html-keyboard-response","trial_index":29,"time_elapsed":380113,"internal_node_id":"0.0-29.0","participant_id":"A3GXC3VG37CQ3G"},{"rt":null,"stimulus":"stimuli/32.jpg","button_pressed":null,"trial_type":"image-button-response","trial_index":30,"time_elapsed":385116,"internal_node_id":"0.0-30.0","participant_id":"A3GXC3VG37CQ3G"},{"rt":2422,"stimulus":"stimuli/32.jpg","button_pressed":"0","trial_type":"image-button-response","trial_index":31,"time_elapsed":387540,"internal_node_id":"0.0-31.0","participant_id":"A3GXC3VG37CQ3G"},{"rt":4383,"response":"80","trial_type":"image-slider-response","trial_index":32,"time_elapsed":391928,"internal_node_id":"0.0-32.0","participant_id":"A3GXC3VG37CQ3G"},{"rt":2870,"stimulus":"stimuli/32.jpg","button_pressed":"1","trial_type":"image-button-response","trial_index":33,"time_elapsed":394802,"internal_node_id":"0.0-33.0","participant_id":"A3GXC3VG37CQ3G"},{"rt":7358,"responses":"{\"Q0\":\"rock\"}","trial_type":"survey-text","trial_index":34,"time_elapsed":402165,"internal_node_id":"0.0-34.0-0.0","participant_id":"A3GXC3VG37CQ3G"},{"rt":null,"stimulus":"<p style=\"font-size: 48px;\">+</p>","key_press":null,"Name":"fixation","trial_type":"html-keyboard-response","trial_index":35,"time_elapsed":403668,"internal_node_id":"0.0-35.0","participant_id":"A3GXC3VG37CQ3G"},{"rt":null,"stimulus":"stimuli/42.jpg","button_pressed":null,"trial_type":"image-button-response","trial_index":36,"time_elapsed":408671,"internal_node_id":"0.0-36.0","participant_id":"A3GXC3VG37CQ3G"},{"rt":1899,"stimulus":"stimuli/42.jpg","button_pressed":"0","trial_type":"image-button-response","trial_index":37,"time_elapsed":410575,"internal_node_id":"0.0-37.0","participant_id":"A3GXC3VG37CQ3G"},{"rt":2216,"response":"28","trial_type":"image-slider-response","trial_index":38,"time_elapsed":412797,"internal_node_id":"0.0-38.0","participant_id":"A3GXC3VG37CQ3G"},{"rt":2192,"stimulus":"stimuli/42.jpg","button_pressed":"0","trial_type":"image-button-response","trial_index":39,"time_elapsed":415011,"internal_node_id":"0.0-39.0","participant_id":"A3GXC3VG37CQ3G"},{"rt":null,"stimulus":"<p style=\"font-size: 48px;\">+</p>","key_press":null,"Name":"fixation","trial_type":"html-keyboard-response","trial_index":40,"time_elapsed":416016,"internal_node_id":"0.0-40.0","participant_id":"A3GXC3VG37CQ3G"},{"rt":null,"stimulus":"stimuli/37.jpg","button_pressed":null,"trial_type":"image-button-response","trial_index":41,"time_elapsed":421019,"internal_node_id":"0.0-41.0","participant_id":"A3GXC3VG37CQ3G"},{"rt":2655,"stimulus":"stimuli/37.jpg","button_pressed":"0","trial_type":"image-button-response","trial_index":42,"time_elapsed":423676,"internal_node_id":"0.0-42.0","participant_id":"A3GXC3VG37CQ3G"},{"rt":4977,"response":"36","trial_type":"image-slider-response","trial_index":43,"time_elapsed":428658,"internal_node_id":"0.0-43.0","participant_id":"A3GXC3VG37CQ3G"},{"rt":1651,"stimulus":"stimuli/37.jpg","button_pressed":"1","trial_type":"image-button-response","trial_index":44,"time_elapsed":430314,"internal_node_id":"0.0-44.0","participant_id":"A3GXC3VG37CQ3G"},{"rt":null,"stimulus":"<p style=\"font-size: 48px;\">+</p>","key_press":null,"Name":"fixation","trial_type":"html-keyboard-response","trial_index":45,"time_elapsed":431819,"internal_node_id":"0.0-45.0","participant_id":"A3GXC3VG37CQ3G"},{"rt":null,"stimulus":"stimuli/52.jpg","button_pressed":null,"trial_type":"image-button-response","trial_index":46,"time_elapsed":436821,"internal_node_id":"0.0-46.0","participant_id":"A3GXC3VG37CQ3G"},{"rt":14348,"stimulus":"stimuli/52.jpg","button_pressed":"0","trial_type":"image-button-response","trial_index":47,"time_elapsed":451171,"internal_node_id":"0.0-47.0","participant_id":"A3GXC3VG37CQ3G"},{"rt":2963,"response":"74","trial_type":"image-slider-response","trial_index":48,"time_elapsed":454141,"internal_node_id":"0.0-48.0","participant_id":"A3GXC3VG37CQ3G"},{"rt":1352,"stimulus":"stimuli/52.jpg","button_pressed":"0","trial_type":"image-button-response","trial_index":49,"time_elapsed":455520,"internal_node_id":"0.0-49.0","participant_id":"A3GXC3VG37CQ3G"},{"rt":null,"stimulus":"<p style=\"font-size: 48px;\">+</p>","key_press":null,"Name":"fixation","trial_type":"html-keyboard-response","trial_index":50,"time_elapsed":456024,"internal_node_id":"0.0-50.0","participant_id":"A3GXC3VG37CQ3G"},{"rt":null,"stimulus":"stimuli/9.jpg","button_pressed":null,"trial_type":"image-button-response","trial_index":51,"time_elapsed":461028,"internal_node_id":"0.0-51.0","participant_id":"A3GXC3VG37CQ3G"},{"rt":2384,"stimulus":"stimuli/9.jpg","button_pressed":"2","trial_type":"image-button-response","trial_index":52,"time_elapsed":463414,"internal_node_id":"0.0-52.0","participant_id":"A3GXC3VG37CQ3G"},{"rt":6143,"response":"21","trial_type":"image-slider-response","trial_index":53,"time_elapsed":469561,"internal_node_id":"0.0-53.0","participant_id":"A3GXC3VG37CQ3G"},{"rt":8199,"stimulus":"stimuli/9.jpg","button_pressed":"1","trial_type":"image-button-response","trial_index":54,"time_elapsed":477765,"internal_node_id":"0.0-54.0","participant_id":"A3GXC3VG37CQ3G"},{"rt":null,"stimulus":"<p style=\"font-size: 48px;\">+</p>","key_press":null,"Name":"fixation","trial_type":"html-keyboard-response","trial_index":55,"time_elapsed":479270,"internal_node_id":"0.0-55.0","participant_id":"A3GXC3VG37CQ3G"},{"rt":null,"stimulus":"stimuli/25.jpg","button_pressed":null,"trial_type":"image-button-response","trial_index":56,"time_elapsed":484272,"internal_node_id":"0.0-56.0","participant_id":"A3GXC3VG37CQ3G"},{"rt":2889,"stimulus":"stimuli/25.jpg","button_pressed":"0","trial_type":"image-button-response","trial_index":57,"time_elapsed":487165,"internal_node_id":"0.0-57.0","participant_id":"A3GXC3VG37CQ3G"},{"rt":3585,"response":"69","trial_type":"image-slider-response","trial_index":58,"time_elapsed":490754,"internal_node_id":"0.0-58.0","participant_id":"A3GXC3VG37CQ3G"},{"rt":1088,"stimulus":"stimuli/25.jpg","button_pressed":"0","trial_type":"image-button-response","trial_index":59,"time_elapsed":491848,"internal_node_id":"0.0-59.0","participant_id":"A3GXC3VG37CQ3G"},{"rt":4024,"responses":"{\"Q0\":\"sky\"}","trial_type":"survey-text","trial_index":60,"time_elapsed":495876,"internal_node_id":"0.0-60.0-0.0","participant_id":"A3GXC3VG37CQ3G"},{"rt":null,"stimulus":"<p style=\"font-size: 48px;\">+</p>","key_press":null,"Name":"fixation","trial_type":"html-keyboard-response","trial_index":61,"time_elapsed":496378,"internal_node_id":"0.0-61.0","participant_id":"A3GXC3VG37CQ3G"},{"rt":null,"stimulus":"stimuli/44.jpg","button_pressed":null,"trial_type":"image-button-response","trial_index":62,"time_elapsed":501381,"internal_node_id":"0.0-62.0","participant_id":"A3GXC3VG37CQ3G"},{"rt":4421,"stimulus":"stimuli/44.jpg","button_pressed":"0","trial_type":"image-button-response","trial_index":63,"time_elapsed":505806,"internal_node_id":"0.0-63.0","participant_id":"A3GXC3VG37CQ3G"},{"rt":2414,"response":"63","trial_type":"image-slider-response","trial_index":64,"time_elapsed":508225,"internal_node_id":"0.0-64.0","participant_id":"A3GXC3VG37CQ3G"},{"rt":1070,"stimulus":"stimuli/44.jpg","button_pressed":"0","trial_type":"image-button-response","trial_index":65,"time_elapsed":509305,"internal_node_id":"0.0-65.0","participant_id":"A3GXC3VG37CQ3G"},{"rt":null,"stimulus":"<p style=\"font-size: 48px;\">+</p>","key_press":null,"Name":"fixation","trial_type":"html-keyboard-response","trial_index":66,"time_elapsed":509807,"internal_node_id":"0.0-66.0","participant_id":"A3GXC3VG37CQ3G"},{"rt":null,"stimulus":"stimuli/65.jpg","button_pressed":null,"trial_type":"image-button-response","trial_index":67,"time_elapsed":514810,"internal_node_id":"0.0-67.0","participant_id":"A3GXC3VG37CQ3G"},{"rt":1254,"stimulus":"stimuli/65.jpg","button_pressed":"0","trial_type":"image-button-response","trial_index":68,"time_elapsed":516071,"internal_node_id":"0.0-68.0","participant_id":"A3GXC3VG37CQ3G"},{"rt":2691,"response":"43","trial_type":"image-slider-response","trial_index":69,"time_elapsed":518767,"internal_node_id":"0.0-69.0","participant_id":"A3GXC3VG37CQ3G"},{"rt":915,"stimulus":"stimuli/65.jpg","button_pressed":"0","trial_type":"image-button-response","trial_index":70,"time_elapsed":519687,"internal_node_id":"0.0-70.0","participant_id":"A3GXC3VG37CQ3G"},{"rt":null,"stimulus":"<p style=\"font-size: 48px;\">+</p>","key_press":null,"Name":"fixation","trial_type":"html-keyboard-response","trial_index":71,"time_elapsed":520190,"internal_node_id":"0.0-71.0","participant_id":"A3GXC3VG37CQ3G"},{"rt":null,"stimulus":"stimuli/47.jpg","button_pressed":null,"trial_type":"image-button-response","trial_index":72,"time_elapsed":525192,"internal_node_id":"0.0-72.0","participant_id":"A3GXC3VG37CQ3G"},{"rt":2478,"stimulus":"stimuli/47.jpg","button_pressed":"0","trial_type":"image-button-response","trial_index":73,"time_elapsed":527673,"internal_node_id":"0.0-73.0","participant_id":"A3GXC3VG37CQ3G"},{"rt":2414,"response":"66","trial_type":"image-slider-response","trial_index":74,"time_elapsed":530091,"internal_node_id":"0.0-74.0","participant_id":"A3GXC3VG37CQ3G"},{"rt":1019,"stimulus":"stimuli/47.jpg","button_pressed":"0","trial_type":"image-button-response","trial_index":75,"time_elapsed":531124,"internal_node_id":"0.0-75.0","participant_id":"A3GXC3VG37CQ3G"},{"rt":null,"stimulus":"<p style=\"font-size: 48px;\">+</p>","key_press":null,"Name":"fixation","trial_type":"html-keyboard-response","trial_index":76,"time_elapsed":532627,"internal_node_id":"0.0-76.0","participant_id":"A3GXC3VG37CQ3G"},{"rt":null,"stimulus":"stimuli/2.jpg","button_pressed":null,"trial_type":"image-button-response","trial_index":77,"time_elapsed":537629,"internal_node_id":"0.0-77.0","participant_id":"A3GXC3VG37CQ3G"},{"rt":8891,"stimulus":"stimuli/2.jpg","button_pressed":"0","trial_type":"image-button-response","trial_index":78,"time_elapsed":546523,"internal_node_id":"0.0-78.0","participant_id":"A3GXC3VG37CQ3G"},{"rt":2720,"response":"69","trial_type":"image-slider-response","trial_index":79,"time_elapsed":549248,"internal_node_id":"0.0-79.0","participant_id":"A3GXC3VG37CQ3G"},{"rt":1064,"stimulus":"stimuli/2.jpg","button_pressed":"0","trial_type":"image-button-response","trial_index":80,"time_elapsed":550319,"internal_node_id":"0.0-80.0","participant_id":"A3GXC3VG37CQ3G"},{"rt":null,"stimulus":"<p style=\"font-size: 48px;\">+</p>","key_press":null,"Name":"fixation","trial_type":"html-keyboard-response","trial_index":81,"time_elapsed":551827,"internal_node_id":"0.0-81.0","participant_id":"A3GXC3VG37CQ3G"},{"rt":null,"stimulus":"stimuli/51.jpg","button_pressed":null,"trial_type":"image-button-response","trial_index":82,"time_elapsed":556831,"internal_node_id":"0.0-82.0","participant_id":"A3GXC3VG37CQ3G"},{"rt":3919,"stimulus":"stimuli/51.jpg","button_pressed":"2","trial_type":"image-button-response","trial_index":83,"time_elapsed":560755,"internal_node_id":"0.0-83.0","participant_id":"A3GXC3VG37CQ3G"},{"rt":2532,"response":"13","trial_type":"image-slider-response","trial_index":84,"time_elapsed":563294,"internal_node_id":"0.0-84.0","participant_id":"A3GXC3VG37CQ3G"},{"rt":1414,"stimulus":"stimuli/51.jpg","button_pressed":"2","trial_type":"image-button-response","trial_index":85,"time_elapsed":564714,"internal_node_id":"0.0-85.0","participant_id":"A3GXC3VG37CQ3G"},{"rt":5602,"responses":"{\"Q0\":\"our\"}","trial_type":"survey-text","trial_index":86,"time_elapsed":570319,"internal_node_id":"0.0-86.0-0.0","participant_id":"A3GXC3VG37CQ3G"},{"rt":null,"stimulus":"<p style=\"font-size: 48px;\">+</p>","key_press":null,"Name":"fixation","trial_type":"html-keyboard-response","trial_index":87,"time_elapsed":571822,"internal_node_id":"0.0-87.0","participant_id":"A3GXC3VG37CQ3G"},{"rt":null,"stimulus":"stimuli/20.jpg","button_pressed":null,"trial_type":"image-button-response","trial_index":88,"time_elapsed":577743,"internal_node_id":"0.0-88.0","participant_id":"A3GXC3VG37CQ3G"},{"rt":8051,"stimulus":"stimuli/20.jpg","button_pressed":"0","trial_type":"image-button-response","trial_index":89,"time_elapsed":585804,"internal_node_id":"0.0-89.0","participant_id":"A3GXC3VG37CQ3G"},{"rt":2931,"response":"95","trial_type":"image-slider-response","trial_index":90,"time_elapsed":588740,"internal_node_id":"0.0-90.0","participant_id":"A3GXC3VG37CQ3G"},{"rt":1237,"stimulus":"stimuli/20.jpg","button_pressed":"0","trial_type":"image-button-response","trial_index":91,"time_elapsed":589982,"internal_node_id":"0.0-91.0","participant_id":"A3GXC3VG37CQ3G"},{"rt":null,"stimulus":"<p style=\"font-size: 48px;\">+</p>","key_press":null,"Name":"fixation","trial_type":"html-keyboard-response","trial_index":92,"time_elapsed":590485,"internal_node_id":"0.0-92.0","participant_id":"A3GXC3VG37CQ3G"},{"rt":null,"stimulus":"stimuli/31.jpg","button_pressed":null,"trial_type":"image-button-response","trial_index":93,"time_elapsed":595488,"internal_node_id":"0.0-93.0","participant_id":"A3GXC3VG37CQ3G"},{"rt":1449,"stimulus":"stimuli/31.jpg","button_pressed":"0","trial_type":"image-button-response","trial_index":94,"time_elapsed":596943,"internal_node_id":"0.0-94.0","participant_id":"A3GXC3VG37CQ3G"},{"rt":2835,"response":"81","trial_type":"image-slider-response","trial_index":95,"time_elapsed":599785,"internal_node_id":"0.0-95.0","participant_id":"A3GXC3VG37CQ3G"},{"rt":1222,"stimulus":"stimuli/31.jpg","button_pressed":"1","trial_type":"image-button-response","trial_index":96,"time_elapsed":601013,"internal_node_id":"0.0-96.0","participant_id":"A3GXC3VG37CQ3G"},{"rt":null,"stimulus":"<p style=\"font-size: 48px;\">+</p>","key_press":null,"Name":"fixation","trial_type":"html-keyboard-response","trial_index":97,"time_elapsed":602017,"internal_node_id":"0.0-97.0","participant_id":"A3GXC3VG37CQ3G"},{"rt":null,"stimulus":"stimuli/13.jpg","button_pressed":null,"trial_type":"image-button-response","trial_index":98,"time_elapsed":607019,"internal_node_id":"0.0-98.0","participant_id":"A3GXC3VG37CQ3G"},{"rt":1689,"stimulus":"stimuli/13.jpg","button_pressed":"0","trial_type":"image-button-response","trial_index":99,"time_elapsed":608710,"internal_node_id":"0.0-99.0","participant_id":"A3GXC3VG37CQ3G"},{"rt":2453,"response":"88","trial_type":"image-slider-response","trial_index":100,"time_elapsed":611167,"internal_node_id":"0.0-100.0","participant_id":"A3GXC3VG37CQ3G"},{"rt":1273,"stimulus":"stimuli/13.jpg","button_pressed":"0","trial_type":"image-button-response","trial_index":101,"time_elapsed":612446,"internal_node_id":"0.0-101.0","participant_id":"A3GXC3VG37CQ3G"},{"rt":null,"stimulus":"<p style=\"font-size: 48px;\">+</p>","key_press":null,"Name":"fixation","trial_type":"html-keyboard-response","trial_index":102,"time_elapsed":613949,"internal_node_id":"0.0-102.0","participant_id":"A3GXC3VG37CQ3G"},{"rt":null,"stimulus":"stimuli/29.jpg","button_pressed":null,"trial_type":"image-button-response","trial_index":103,"time_elapsed":618957,"internal_node_id":"0.0-103.0","participant_id":"A3GXC3VG37CQ3G"},{"rt":1492,"stimulus":"stimuli/29.jpg","button_pressed":"0","trial_type":"image-button-response","trial_index":104,"time_elapsed":620453,"internal_node_id":"0.0-104.0","participant_id":"A3GXC3VG37CQ3G"},{"rt":3152,"response":"49","trial_type":"image-slider-response","trial_index":105,"time_elapsed":623612,"internal_node_id":"0.0-105.0","participant_id":"A3GXC3VG37CQ3G"},{"rt":1429,"stimulus":"stimuli/29.jpg","button_pressed":"0","trial_type":"image-button-response","trial_index":106,"time_elapsed":625047,"internal_node_id":"0.0-106.0","participant_id":"A3GXC3VG37CQ3G"},{"rt":null,"stimulus":"<p style=\"font-size: 48px;\">+</p>","key_press":null,"Name":"fixation","trial_type":"html-keyboard-response","trial_index":107,"time_elapsed":626550,"internal_node_id":"0.0-107.0","participant_id":"A3GXC3VG37CQ3G"},{"rt":null,"stimulus":"stimuli/53.jpg","button_pressed":null,"trial_type":"image-button-response","trial_index":108,"time_elapsed":631553,"internal_node_id":"0.0-108.0","participant_id":"A3GXC3VG37CQ3G"},{"rt":2844,"stimulus":"stimuli/53.jpg","button_pressed":"0","trial_type":"image-button-response","trial_index":109,"time_elapsed":634403,"internal_node_id":"0.0-109.0","participant_id":"A3GXC3VG37CQ3G"},{"rt":4095,"response":"69","trial_type":"image-slider-response","trial_index":110,"time_elapsed":638502,"internal_node_id":"0.0-110.0","participant_id":"A3GXC3VG37CQ3G"},{"rt":1293,"stimulus":"stimuli/53.jpg","button_pressed":"0","trial_type":"image-button-response","trial_index":111,"time_elapsed":639798,"internal_node_id":"0.0-111.0","participant_id":"A3GXC3VG37CQ3G"},{"rt":5097,"responses":"{\"Q0\":\"course\"}","trial_type":"survey-text","trial_index":112,"time_elapsed":644898,"internal_node_id":"0.0-112.0-0.0","participant_id":"A3GXC3VG37CQ3G"},{"rt":null,"stimulus":"<p style=\"font-size: 48px;\">+</p>","key_press":null,"Name":"fixation","trial_type":"html-keyboard-response","trial_index":113,"time_elapsed":645401,"internal_node_id":"0.0-113.0","participant_id":"A3GXC3VG37CQ3G"},{"rt":null,"stimulus":"stimuli/39.jpg","button_pressed":null,"trial_type":"image-button-response","trial_index":114,"time_elapsed":650403,"internal_node_id":"0.0-114.0","participant_id":"A3GXC3VG37CQ3G"},{"rt":4176,"stimulus":"stimuli/39.jpg","button_pressed":"0","trial_type":"image-button-response","trial_index":115,"time_elapsed":654582,"internal_node_id":"0.0-115.0","participant_id":"A3GXC3VG37CQ3G"},{"rt":3960,"response":"79","trial_type":"image-slider-response","trial_index":116,"time_elapsed":658547,"internal_node_id":"0.0-116.0","participant_id":"A3GXC3VG37CQ3G"},{"rt":2203,"stimulus":"stimuli/39.jpg","button_pressed":"0","trial_type":"image-button-response","trial_index":117,"time_elapsed":660757,"internal_node_id":"0.0-117.0","participant_id":"A3GXC3VG37CQ3G"},{"rt":null,"stimulus":"<p style=\"font-size: 48px;\">+</p>","key_press":null,"Name":"fixation","trial_type":"html-keyboard-response","trial_index":118,"time_elapsed":661261,"internal_node_id":"0.0-118.0","participant_id":"A3GXC3VG37CQ3G"},{"rt":null,"stimulus":"stimuli/62.jpg","button_pressed":null,"trial_type":"image-button-response","trial_index":119,"time_elapsed":666767,"internal_node_id":"0.0-119.0","participant_id":"A3GXC3VG37CQ3G"},{"rt":6881,"stimulus":"stimuli/62.jpg","button_pressed":"2","trial_type":"image-button-response","trial_index":120,"time_elapsed":673854,"internal_node_id":"0.0-120.0","participant_id":"A3GXC3VG37CQ3G"},{"rt":4241,"response":"47","trial_type":"image-slider-response","trial_index":121,"time_elapsed":678100,"internal_node_id":"0.0-121.0","participant_id":"A3GXC3VG37CQ3G"},{"rt":1889,"stimulus":"stimuli/62.jpg","button_pressed":"2","trial_type":"image-button-response","trial_index":122,"time_elapsed":679998,"internal_node_id":"0.0-122.0","participant_id":"A3GXC3VG37CQ3G"},{"rt":null,"stimulus":"<p style=\"font-size: 48px;\">+</p>","key_press":null,"Name":"fixation","trial_type":"html-keyboard-response","trial_index":123,"time_elapsed":681502,"internal_node_id":"0.0-123.0","participant_id":"A3GXC3VG37CQ3G"},{"rt":null,"stimulus":"stimuli/35.jpg","button_pressed":null,"trial_type":"image-button-response","trial_index":124,"time_elapsed":686827,"internal_node_id":"0.0-124.0","participant_id":"A3GXC3VG37CQ3G"},{"rt":9013,"stimulus":"stimuli/35.jpg","button_pressed":"0","trial_type":"image-button-response","trial_index":125,"time_elapsed":696171,"internal_node_id":"0.0-125.0","participant_id":"A3GXC3VG37CQ3G"},{"rt":2805,"response":"42","trial_type":"image-slider-response","trial_index":126,"time_elapsed":698981,"internal_node_id":"0.0-126.0","participant_id":"A3GXC3VG37CQ3G"},{"rt":2322,"stimulus":"stimuli/35.jpg","button_pressed":"0","trial_type":"image-button-response","trial_index":127,"time_elapsed":701308,"internal_node_id":"0.0-127.0","participant_id":"A3GXC3VG37CQ3G"},{"rt":null,"stimulus":"<p style=\"font-size: 48px;\">+</p>","key_press":null,"Name":"fixation","trial_type":"html-keyboard-response","trial_index":128,"time_elapsed":702311,"internal_node_id":"0.0-128.0","participant_id":"A3GXC3VG37CQ3G"},{"rt":null,"stimulus":"stimuli/27.jpg","button_pressed":null,"trial_type":"image-button-response","trial_index":129,"time_elapsed":707316,"internal_node_id":"0.0-129.0","participant_id":"A3GXC3VG37CQ3G"},{"rt":2144,"stimulus":"stimuli/27.jpg","button_pressed":"0","trial_type":"image-button-response","trial_index":130,"time_elapsed":709466,"internal_node_id":"0.0-130.0","participant_id":"A3GXC3VG37CQ3G"},{"rt":2372,"response":"76","trial_type":"image-slider-response","trial_index":131,"time_elapsed":711846,"internal_node_id":"0.0-131.0","participant_id":"A3GXC3VG37CQ3G"},{"rt":1615,"stimulus":"stimuli/27.jpg","button_pressed":"1","trial_type":"image-button-response","trial_index":132,"time_elapsed":713471,"internal_node_id":"0.0-132.0","participant_id":"A3GXC3VG37CQ3G"},{"rt":null,"stimulus":"<p style=\"font-size: 48px;\">+</p>","key_press":null,"Name":"fixation","trial_type":"html-keyboard-response","trial_index":133,"time_elapsed":714974,"internal_node_id":"0.0-133.0","participant_id":"A3GXC3VG37CQ3G"},{"rt":null,"stimulus":"stimuli/22.jpg","button_pressed":null,"trial_type":"image-button-response","trial_index":134,"time_elapsed":720396,"internal_node_id":"0.0-134.0","participant_id":"A3GXC3VG37CQ3G"},{"rt":1617,"stimulus":"stimuli/22.jpg","button_pressed":"0","trial_type":"image-button-response","trial_index":135,"time_elapsed":722017,"internal_node_id":"0.0-135.0","participant_id":"A3GXC3VG37CQ3G"},{"rt":2453,"response":"70","trial_type":"image-slider-response","trial_index":136,"time_elapsed":724474,"internal_node_id":"0.0-136.0","participant_id":"A3GXC3VG37CQ3G"},{"rt":1185,"stimulus":"stimuli/22.jpg","button_pressed":"0","trial_type":"image-button-response","trial_index":137,"time_elapsed":725664,"internal_node_id":"0.0-137.0","participant_id":"A3GXC3VG37CQ3G"},{"rt":4057,"responses":"{\"Q0\":\"we\"}","trial_type":"survey-text","trial_index":138,"time_elapsed":729724,"internal_node_id":"0.0-138.0-0.0","participant_id":"A3GXC3VG37CQ3G"},{"rt":null,"stimulus":"<p style=\"font-size: 48px;\">+</p>","key_press":null,"Name":"fixation","trial_type":"html-keyboard-response","trial_index":139,"time_elapsed":730227,"internal_node_id":"0.0-139.0","participant_id":"A3GXC3VG37CQ3G"},{"rt":null,"stimulus":"stimuli/64.jpg","button_pressed":null,"trial_type":"image-button-response","trial_index":140,"time_elapsed":735229,"internal_node_id":"0.0-140.0","participant_id":"A3GXC3VG37CQ3G"},{"rt":10009,"stimulus":"stimuli/64.jpg","button_pressed":"0","trial_type":"image-button-response","trial_index":141,"time_elapsed":745241,"internal_node_id":"0.0-141.0","participant_id":"A3GXC3VG37CQ3G"},{"rt":3567,"response":"61","trial_type":"image-slider-response","trial_index":142,"time_elapsed":748813,"internal_node_id":"0.0-142.0","participant_id":"A3GXC3VG37CQ3G"},{"rt":1147,"stimulus":"stimuli/64.jpg","button_pressed":"0","trial_type":"image-button-response","trial_index":143,"time_elapsed":749963,"internal_node_id":"0.0-143.0","participant_id":"A3GXC3VG37CQ3G"},{"rt":null,"stimulus":"<p style=\"font-size: 48px;\">+</p>","key_press":null,"Name":"fixation","trial_type":"html-keyboard-response","trial_index":144,"time_elapsed":751467,"internal_node_id":"0.0-144.0","participant_id":"A3GXC3VG37CQ3G"},{"rt":null,"stimulus":"stimuli/71.jpg","button_pressed":null,"trial_type":"image-button-response","trial_index":145,"time_elapsed":756469,"internal_node_id":"0.0-145.0","participant_id":"A3GXC3VG37CQ3G"},{"rt":2330,"stimulus":"stimuli/71.jpg","button_pressed":"0","trial_type":"image-button-response","trial_index":146,"time_elapsed":758803,"internal_node_id":"0.0-146.0","participant_id":"A3GXC3VG37CQ3G"},{"rt":2803,"response":"95","trial_type":"image-slider-response","trial_index":147,"time_elapsed":761614,"internal_node_id":"0.0-147.0","participant_id":"A3GXC3VG37CQ3G"},{"rt":953,"stimulus":"stimuli/71.jpg","button_pressed":"0","trial_type":"image-button-response","trial_index":148,"time_elapsed":762574,"internal_node_id":"0.0-148.0","participant_id":"A3GXC3VG37CQ3G"},{"rt":null,"stimulus":"<p style=\"font-size: 48px;\">+</p>","key_press":null,"Name":"fixation","trial_type":"html-keyboard-response","trial_index":149,"time_elapsed":763577,"internal_node_id":"0.0-149.0","participant_id":"A3GXC3VG37CQ3G"},{"rt":null,"stimulus":"stimuli/50.jpg","button_pressed":null,"trial_type":"image-button-response","trial_index":150,"time_elapsed":768580,"internal_node_id":"0.0-150.0","participant_id":"A3GXC3VG37CQ3G"},{"rt":2120,"stimulus":"stimuli/50.jpg","button_pressed":"0","trial_type":"image-button-response","trial_index":151,"time_elapsed":770702,"internal_node_id":"0.0-151.0","participant_id":"A3GXC3VG37CQ3G"},{"rt":2096,"response":"84","trial_type":"image-slider-response","trial_index":152,"time_elapsed":772806,"internal_node_id":"0.0-152.0","participant_id":"A3GXC3VG37CQ3G"},{"rt":1174,"stimulus":"stimuli/50.jpg","button_pressed":"1","trial_type":"image-button-response","trial_index":153,"time_elapsed":773988,"internal_node_id":"0.0-153.0","participant_id":"A3GXC3VG37CQ3G"},{"rt":null,"stimulus":"<p style=\"font-size: 48px;\">+</p>","key_press":null,"Name":"fixation","trial_type":"html-keyboard-response","trial_index":154,"time_elapsed":775491,"internal_node_id":"0.0-154.0","participant_id":"A3GXC3VG37CQ3G"},{"rt":null,"stimulus":"stimuli/49.jpg","button_pressed":null,"trial_type":"image-button-response","trial_index":155,"time_elapsed":780493,"internal_node_id":"0.0-155.0","participant_id":"A3GXC3VG37CQ3G"},{"rt":1671,"stimulus":"stimuli/49.jpg","button_pressed":"0","trial_type":"image-button-response","trial_index":156,"time_elapsed":782167,"internal_node_id":"0.0-156.0","participant_id":"A3GXC3VG37CQ3G"},{"rt":2884,"response":"89","trial_type":"image-slider-response","trial_index":157,"time_elapsed":785056,"internal_node_id":"0.0-157.0","participant_id":"A3GXC3VG37CQ3G"},{"rt":3003,"stimulus":"stimuli/49.jpg","button_pressed":"0","trial_type":"image-button-response","trial_index":158,"time_elapsed":788064,"internal_node_id":"0.0-158.0","participant_id":"A3GXC3VG37CQ3G"},{"rt":null,"stimulus":"<p style=\"font-size: 48px;\">+</p>","key_press":null,"Name":"fixation","trial_type":"html-keyboard-response","trial_index":159,"time_elapsed":788567,"internal_node_id":"0.0-159.0","participant_id":"A3GXC3VG37CQ3G"},{"rt":null,"stimulus":"stimuli/70.jpg","button_pressed":null,"trial_type":"image-button-response","trial_index":160,"time_elapsed":793569,"internal_node_id":"0.0-160.0","participant_id":"A3GXC3VG37CQ3G"},{"rt":1732,"stimulus":"stimuli/70.jpg","button_pressed":"0","trial_type":"image-button-response","trial_index":161,"time_elapsed":795305,"internal_node_id":"0.0-161.0","participant_id":"A3GXC3VG37CQ3G"},{"rt":2522,"response":"81","trial_type":"image-slider-response","trial_index":162,"time_elapsed":797832,"internal_node_id":"0.0-162.0","participant_id":"A3GXC3VG37CQ3G"},{"rt":876,"stimulus":"stimuli/70.jpg","button_pressed":"0","trial_type":"image-button-response","trial_index":163,"time_elapsed":798713,"internal_node_id":"0.0-163.0","participant_id":"A3GXC3VG37CQ3G"},{"rt":3123,"stimulus":"stimuli/ins/Slide8.JPG","button_pressed":"0","trial_type":"image-button-response","trial_index":164,"time_elapsed":801840,"internal_node_id":"0.0-164.0","participant_id":"A3GXC3VG37CQ3G"}]