[{"rt":8907,"responses":"{\"Q0\":\"AHY3YAYJLTW32\"}","trial_type":"survey-text","trial_index":0,"time_elapsed":8909,"internal_node_id":"0.0-0.0-0.0","participant_id":"AHY3YAYJLTW32"},{"rt":11078,"stimulus":"stimuli/ins/Slide1.JPG","button_pressed":"0","Name":"instructions","trial_type":"image-button-response","trial_index":1,"time_elapsed":19989,"internal_node_id":"0.0-1.0","participant_id":"AHY3YAYJLTW32"},{"rt":5909,"stimulus":"stimuli/ins/Slide2.JPG","button_pressed":"0","Name":"instructions","trial_type":"image-button-response","trial_index":2,"time_elapsed":25899,"internal_node_id":"0.0-2.0","participant_id":"AHY3YAYJLTW32"},{"rt":6203,"stimulus":"stimuli/ins/Slide3.JPG","button_pressed":"0","Name":"instructions","trial_type":"image-button-response","trial_index":3,"time_elapsed":32103,"internal_node_id":"0.0-3.0","participant_id":"AHY3YAYJLTW32"},{"rt":4998,"stimulus":"stimuli/ins/Slide4.JPG","button_pressed":"0","Name":"instructions","trial_type":"image-button-response","trial_index":4,"time_elapsed":37101,"internal_node_id":"0.0-4.0","participant_id":"AHY3YAYJLTW32"},{"rt":3168,"stimulus":"stimuli/ins/Slide5.JPG","button_pressed":"0","Name":"instructions","trial_type":"image-button-response","trial_index":5,"time_elapsed":40269,"internal_node_id":"0.0-5.0","participant_id":"AHY3YAYJLTW32"},{"rt":4963,"stimulus":"stimuli/ins/Slide6.JPG","button_pressed":"0","Name":"instructions","trial_type":"image-button-response","trial_index":6,"time_elapsed":45233,"internal_node_id":"0.0-6.0","participant_id":"AHY3YAYJLTW32"},{"rt":1782,"stimulus":"stimuli/ins/Slide7.JPG","button_pressed":"0","Name":"instructions","trial_type":"image-button-response","trial_index":7,"time_elapsed":47015,"internal_node_id":"0.0-7.0","participant_id":"AHY3YAYJLTW32"},{"rt":15982,"responses":"{\"Q0\":\"but\"}","trial_type":"survey-text","trial_index":8,"time_elapsed":62998,"internal_node_id":"0.0-8.0-0.0","participant_id":"AHY3YAYJLTW32"},{"rt":null,"stimulus":"<p style=\"font-size: 48px;\">+</p>","key_press":null,"Name":"fixation","trial_type":"html-keyboard-response","trial_index":9,"time_elapsed":64007,"internal_node_id":"0.0-9.0","participant_id":"AHY3YAYJLTW32"},{"rt":null,"stimulus":"stimuli/37.jpg","button_pressed":null,"trial_type":"image-button-response","trial_index":10,"time_elapsed":69008,"internal_node_id":"0.0-10.0","participant_id":"AHY3YAYJLTW32"},{"rt":9070,"stimulus":"stimuli/37.jpg","button_pressed":"0","trial_type":"image-button-response","trial_index":11,"time_elapsed":78079,"internal_node_id":"0.0-11.0","participant_id":"AHY3YAYJLTW32"},{"rt":9973,"response":"14","trial_type":"image-slider-response","trial_index":12,"time_elapsed":88053,"internal_node_id":"0.0-12.0","participant_id":"AHY3YAYJLTW32"},{"rt":7869,"stimulus":"stimuli/37.jpg","button_pressed":"0","trial_type":"image-button-response","trial_index":13,"time_elapsed":95924,"internal_node_id":"0.0-13.0","participant_id":"AHY3YAYJLTW32"},{"rt":null,"stimulus":"<p style=\"font-size: 48px;\">+</p>","key_press":null,"Name":"fixation","trial_type":"html-keyboard-response","trial_index":14,"time_elapsed":96926,"internal_node_id":"0.0-14.0","participant_id":"AHY3YAYJLTW32"},{"rt":null,"stimulus":"stimuli/44.jpg","button_pressed":null,"trial_type":"image-button-response","trial_index":15,"time_elapsed":101927,"internal_node_id":"0.0-15.0","participant_id":"AHY3YAYJLTW32"},{"rt":5695,"stimulus":"stimuli/44.jpg","button_pressed":"2","trial_type":"image-button-response","trial_index":16,"time_elapsed":107625,"internal_node_id":"0.0-16.0","participant_id":"AHY3YAYJLTW32"},{"rt":5171,"response":"6","trial_type":"image-slider-response","trial_index":17,"time_elapsed":112797,"internal_node_id":"0.0-17.0","participant_id":"AHY3YAYJLTW32"},{"rt":5285,"stimulus":"stimuli/44.jpg","button_pressed":"2","trial_type":"image-button-response","trial_index":18,"time_elapsed":118083,"internal_node_id":"0.0-18.0","participant_id":"AHY3YAYJLTW32"},{"rt":null,"stimulus":"<p style=\"font-size: 48px;\">+</p>","key_press":null,"Name":"fixation","trial_type":"html-keyboard-response","trial_index":19,"time_elapsed":119086,"internal_node_id":"0.0-19.0","participant_id":"AHY3YAYJLTW32"},{"rt":null,"stimulus":"stimuli/70.jpg","button_pressed":null,"trial_type":"image-button-response","trial_index":20,"time_elapsed":124089,"internal_node_id":"0.0-20.0","participant_id":"AHY3YAYJLTW32"},{"rt":1251,"stimulus":"stimuli/70.jpg","button_pressed":"0","trial_type":"image-button-response","trial_index":21,"time_elapsed":125341,"internal_node_id":"0.0-21.0","participant_id":"AHY3YAYJLTW32"},{"rt":3855,"response":"26","trial_type":"image-slider-response","trial_index":22,"time_elapsed":129197,"internal_node_id":"0.0-22.0","participant_id":"AHY3YAYJLTW32"},{"rt":6319,"stimulus":"stimuli/70.jpg","button_pressed":"2","trial_type":"image-button-response","trial_index":23,"time_elapsed":135517,"internal_node_id":"0.0-23.0","participant_id":"AHY3YAYJLTW32"},{"rt":null,"stimulus":"<p style=\"font-size: 48px;\">+</p>","key_press":null,"Name":"fixation","trial_type":"html-keyboard-response","trial_index":24,"time_elapsed":137020,"internal_node_id":"0.0-24.0","participant_id":"AHY3YAYJLTW32"},{"rt":null,"stimulus":"stimuli/9.jpg","button_pressed":null,"trial_type":"image-button-response","trial_index":25,"time_elapsed":142021,"internal_node_id":"0.0-25.0","participant_id":"AHY3YAYJLTW32"},{"rt":2324,"stimulus":"stimuli/9.jpg","button_pressed":"2","trial_type":"image-button-response","trial_index":26,"time_elapsed":144347,"internal_node_id":"0.0-26.0","participant_id":"AHY3YAYJLTW32"},{"rt":3886,"response":"13","trial_type":"image-slider-response","trial_index":27,"time_elapsed":148235,"internal_node_id":"0.0-27.0","participant_id":"AHY3YAYJLTW32"},{"rt":1472,"stimulus":"stimuli/9.jpg","button_pressed":"2","trial_type":"image-button-response","trial_index":28,"time_elapsed":149708,"internal_node_id":"0.0-28.0","participant_id":"AHY3YAYJLTW32"},{"rt":null,"stimulus":"<p style=\"font-size: 48px;\">+</p>","key_press":null,"Name":"fixation","trial_type":"html-keyboard-response","trial_index":29,"time_elapsed":150710,"internal_node_id":"0.0-29.0","participant_id":"AHY3YAYJLTW32"},{"rt":null,"stimulus":"stimuli/65.jpg","button_pressed":null,"trial_type":"image-button-response","trial_index":30,"time_elapsed":155712,"internal_node_id":"0.0-30.0","participant_id":"AHY3YAYJLTW32"},{"rt":1378,"stimulus":"stimuli/65.jpg","button_pressed":"0","trial_type":"image-button-response","trial_index":31,"time_elapsed":157091,"internal_node_id":"0.0-31.0","participant_id":"AHY3YAYJLTW32"},{"rt":4095,"response":"15","trial_type":"image-slider-response","trial_index":32,"time_elapsed":161187,"internal_node_id":"0.0-32.0","participant_id":"AHY3YAYJLTW32"},{"rt":2439,"stimulus":"stimuli/65.jpg","button_pressed":"0","trial_type":"image-button-response","trial_index":33,"time_elapsed":163627,"internal_node_id":"0.0-33.0","participant_id":"AHY3YAYJLTW32"},{"rt":16605,"responses":"{\"Q0\":\"rock\"}","trial_type":"survey-text","trial_index":34,"time_elapsed":180234,"internal_node_id":"0.0-34.0-0.0","participant_id":"AHY3YAYJLTW32"},{"rt":null,"stimulus":"<p style=\"font-size: 48px;\">+</p>","key_press":null,"Name":"fixation","trial_type":"html-keyboard-response","trial_index":35,"time_elapsed":181235,"internal_node_id":"0.0-35.0","participant_id":"AHY3YAYJLTW32"},{"rt":null,"stimulus":"stimuli/12.jpg","button_pressed":null,"trial_type":"image-button-response","trial_index":36,"time_elapsed":186236,"internal_node_id":"0.0-36.0","participant_id":"AHY3YAYJLTW32"},{"rt":1160,"stimulus":"stimuli/12.jpg","button_pressed":"0","trial_type":"image-button-response","trial_index":37,"time_elapsed":187397,"internal_node_id":"0.0-37.0","participant_id":"AHY3YAYJLTW32"},{"rt":3313,"response":"14","trial_type":"image-slider-response","trial_index":38,"time_elapsed":190712,"internal_node_id":"0.0-38.0","participant_id":"AHY3YAYJLTW32"},{"rt":1385,"stimulus":"stimuli/12.jpg","button_pressed":"0","trial_type":"image-button-response","trial_index":39,"time_elapsed":192098,"internal_node_id":"0.0-39.0","participant_id":"AHY3YAYJLTW32"},{"rt":null,"stimulus":"<p style=\"font-size: 48px;\">+</p>","key_press":null,"Name":"fixation","trial_type":"html-keyboard-response","trial_index":40,"time_elapsed":192598,"internal_node_id":"0.0-40.0","participant_id":"AHY3YAYJLTW32"},{"rt":null,"stimulus":"stimuli/62.jpg","button_pressed":null,"trial_type":"image-button-response","trial_index":41,"time_elapsed":197605,"internal_node_id":"0.0-41.0","participant_id":"AHY3YAYJLTW32"},{"rt":1719,"stimulus":"stimuli/62.jpg","button_pressed":"2","trial_type":"image-button-response","trial_index":42,"time_elapsed":199325,"internal_node_id":"0.0-42.0","participant_id":"AHY3YAYJLTW32"},{"rt":3205,"response":"12","trial_type":"image-slider-response","trial_index":43,"time_elapsed":202532,"internal_node_id":"0.0-43.0","participant_id":"AHY3YAYJLTW32"},{"rt":2110,"stimulus":"stimuli/62.jpg","button_pressed":"2","trial_type":"image-button-response","trial_index":44,"time_elapsed":204643,"internal_node_id":"0.0-44.0","participant_id":"AHY3YAYJLTW32"},{"rt":null,"stimulus":"<p style=\"font-size: 48px;\">+</p>","key_press":null,"Name":"fixation","trial_type":"html-keyboard-response","trial_index":45,"time_elapsed":205647,"internal_node_id":"0.0-45.0","participant_id":"AHY3YAYJLTW32"},{"rt":null,"stimulus":"stimuli/17.jpg","button_pressed":null,"trial_type":"image-button-response","trial_index":46,"time_elapsed":210657,"internal_node_id":"0.0-46.0","participant_id":"AHY3YAYJLTW32"},{"rt":1227,"stimulus":"stimuli/17.jpg","button_pressed":"2","trial_type":"image-button-response","trial_index":47,"time_elapsed":211884,"internal_node_id":"0.0-47.0","participant_id":"AHY3YAYJLTW32"},{"rt":4254,"response":"18","trial_type":"image-slider-response","trial_index":48,"time_elapsed":216138,"internal_node_id":"0.0-48.0","participant_id":"AHY3YAYJLTW32"},{"rt":1945,"stimulus":"stimuli/17.jpg","button_pressed":"2","trial_type":"image-button-response","trial_index":49,"time_elapsed":218084,"internal_node_id":"0.0-49.0","participant_id":"AHY3YAYJLTW32"},{"rt":null,"stimulus":"<p style=\"font-size: 48px;\">+</p>","key_press":null,"Name":"fixation","trial_type":"html-keyboard-response","trial_index":50,"time_elapsed":218596,"internal_node_id":"0.0-50.0","participant_id":"AHY3YAYJLTW32"},{"rt":null,"stimulus":"stimuli/4.jpg","button_pressed":null,"trial_type":"image-button-response","trial_index":51,"time_elapsed":223597,"internal_node_id":"0.0-51.0","participant_id":"AHY3YAYJLTW32"},{"rt":1211,"stimulus":"stimuli/4.jpg","button_pressed":"0","trial_type":"image-button-response","trial_index":52,"time_elapsed":224809,"internal_node_id":"0.0-52.0","participant_id":"AHY3YAYJLTW32"},{"rt":3259,"response":"27","trial_type":"image-slider-response","trial_index":53,"time_elapsed":228069,"internal_node_id":"0.0-53.0","participant_id":"AHY3YAYJLTW32"},{"rt":1387,"stimulus":"stimuli/4.jpg","button_pressed":"0","trial_type":"image-button-response","trial_index":54,"time_elapsed":229458,"internal_node_id":"0.0-54.0","participant_id":"AHY3YAYJLTW32"},{"rt":null,"stimulus":"<p style=\"font-size: 48px;\">+</p>","key_press":null,"Name":"fixation","trial_type":"html-keyboard-response","trial_index":55,"time_elapsed":230960,"internal_node_id":"0.0-55.0","participant_id":"AHY3YAYJLTW32"},{"rt":null,"stimulus":"stimuli/46.jpg","button_pressed":null,"trial_type":"image-button-response","trial_index":56,"time_elapsed":235962,"internal_node_id":"0.0-56.0","participant_id":"AHY3YAYJLTW32"},{"rt":5883,"stimulus":"stimuli/46.jpg","button_pressed":"0","trial_type":"image-button-response","trial_index":57,"time_elapsed":241846,"internal_node_id":"0.0-57.0","participant_id":"AHY3YAYJLTW32"},{"rt":3067,"response":"21","trial_type":"image-slider-response","trial_index":58,"time_elapsed":244913,"internal_node_id":"0.0-58.0","participant_id":"AHY3YAYJLTW32"},{"rt":1105,"stimulus":"stimuli/46.jpg","button_pressed":"0","trial_type":"image-button-response","trial_index":59,"time_elapsed":246019,"internal_node_id":"0.0-59.0","participant_id":"AHY3YAYJLTW32"},{"rt":8163,"responses":"{\"Q0\":\"sky\"}","trial_type":"survey-text","trial_index":60,"time_elapsed":254184,"internal_node_id":"0.0-60.0-0.0","participant_id":"AHY3YAYJLTW32"},{"rt":null,"stimulus":"<p style=\"font-size: 48px;\">+</p>","key_press":null,"Name":"fixation","trial_type":"html-keyboard-response","trial_index":61,"time_elapsed":254685,"internal_node_id":"0.0-61.0","participant_id":"AHY3YAYJLTW32"},{"rt":null,"stimulus":"stimuli/13.jpg","button_pressed":null,"trial_type":"image-button-response","trial_index":62,"time_elapsed":259687,"internal_node_id":"0.0-62.0","participant_id":"AHY3YAYJLTW32"},{"rt":2234,"stimulus":"stimuli/13.jpg","button_pressed":"2","trial_type":"image-button-response","trial_index":63,"time_elapsed":261921,"internal_node_id":"0.0-63.0","participant_id":"AHY3YAYJLTW32"},{"rt":6311,"response":"2","trial_type":"image-slider-response","trial_index":64,"time_elapsed":268234,"internal_node_id":"0.0-64.0","participant_id":"AHY3YAYJLTW32"},{"rt":2121,"stimulus":"stimuli/13.jpg","button_pressed":"2","trial_type":"image-button-response","trial_index":65,"time_elapsed":270356,"internal_node_id":"0.0-65.0","participant_id":"AHY3YAYJLTW32"},{"rt":null,"stimulus":"<p style=\"font-size: 48px;\">+</p>","key_press":null,"Name":"fixation","trial_type":"html-keyboard-response","trial_index":66,"time_elapsed":271857,"internal_node_id":"0.0-66.0","participant_id":"AHY3YAYJLTW32"},{"rt":null,"stimulus":"stimuli/28.jpg","button_pressed":null,"trial_type":"image-button-response","trial_index":67,"time_elapsed":276859,"internal_node_id":"0.0-67.0","participant_id":"AHY3YAYJLTW32"},{"rt":2434,"stimulus":"stimuli/28.jpg","button_pressed":"2","trial_type":"image-button-response","trial_index":68,"time_elapsed":279296,"internal_node_id":"0.0-68.0","participant_id":"AHY3YAYJLTW32"},{"rt":6796,"response":"10","trial_type":"image-slider-response","trial_index":69,"time_elapsed":286094,"internal_node_id":"0.0-69.0","participant_id":"AHY3YAYJLTW32"},{"rt":2245,"stimulus":"stimuli/28.jpg","button_pressed":"2","trial_type":"image-button-response","trial_index":70,"time_elapsed":288340,"internal_node_id":"0.0-70.0","participant_id":"AHY3YAYJLTW32"},{"rt":null,"stimulus":"<p style=\"font-size: 48px;\">+</p>","key_press":null,"Name":"fixation","trial_type":"html-keyboard-response","trial_index":71,"time_elapsed":288841,"internal_node_id":"0.0-71.0","participant_id":"AHY3YAYJLTW32"},{"rt":null,"stimulus":"stimuli/50.jpg","button_pressed":null,"trial_type":"image-button-response","trial_index":72,"time_elapsed":293843,"internal_node_id":"0.0-72.0","participant_id":"AHY3YAYJLTW32"},{"rt":1601,"stimulus":"stimuli/50.jpg","button_pressed":"0","trial_type":"image-button-response","trial_index":73,"time_elapsed":295444,"internal_node_id":"0.0-73.0","participant_id":"AHY3YAYJLTW32"},{"rt":2600,"response":"26","trial_type":"image-slider-response","trial_index":74,"time_elapsed":298045,"internal_node_id":"0.0-74.0","participant_id":"AHY3YAYJLTW32"},{"rt":1325,"stimulus":"stimuli/50.jpg","button_pressed":"1","trial_type":"image-button-response","trial_index":75,"time_elapsed":299371,"internal_node_id":"0.0-75.0","participant_id":"AHY3YAYJLTW32"},{"rt":null,"stimulus":"<p style=\"font-size: 48px;\">+</p>","key_press":null,"Name":"fixation","trial_type":"html-keyboard-response","trial_index":76,"time_elapsed":300876,"internal_node_id":"0.0-76.0","participant_id":"AHY3YAYJLTW32"},{"rt":null,"stimulus":"stimuli/66.jpg","button_pressed":null,"trial_type":"image-button-response","trial_index":77,"time_elapsed":305897,"internal_node_id":"0.0-77.0","participant_id":"AHY3YAYJLTW32"},{"rt":2605,"stimulus":"stimuli/66.jpg","button_pressed":"2","trial_type":"image-button-response","trial_index":78,"time_elapsed":308504,"internal_node_id":"0.0-78.0","participant_id":"AHY3YAYJLTW32"},{"rt":3696,"response":"19","trial_type":"image-slider-response","trial_index":79,"time_elapsed":312200,"internal_node_id":"0.0-79.0","participant_id":"AHY3YAYJLTW32"},{"rt":1670,"stimulus":"stimuli/66.jpg","button_pressed":"2","trial_type":"image-button-response","trial_index":80,"time_elapsed":313871,"internal_node_id":"0.0-80.0","participant_id":"AHY3YAYJLTW32"},{"rt":null,"stimulus":"<p style=\"font-size: 48px;\">+</p>","key_press":null,"Name":"fixation","trial_type":"html-keyboard-response","trial_index":81,"time_elapsed":315387,"internal_node_id":"0.0-81.0","participant_id":"AHY3YAYJLTW32"},{"rt":null,"stimulus":"stimuli/20.jpg","button_pressed":null,"trial_type":"image-button-response","trial_index":82,"time_elapsed":320406,"internal_node_id":"0.0-82.0","participant_id":"AHY3YAYJLTW32"},{"rt":2264,"stimulus":"stimuli/20.jpg","button_pressed":"2","trial_type":"image-button-response","trial_index":83,"time_elapsed":322671,"internal_node_id":"0.0-83.0","participant_id":"AHY3YAYJLTW32"},{"rt":3276,"response":"22","trial_type":"image-slider-response","trial_index":84,"time_elapsed":325948,"internal_node_id":"0.0-84.0","participant_id":"AHY3YAYJLTW32"},{"rt":1571,"stimulus":"stimuli/20.jpg","button_pressed":"2","trial_type":"image-button-response","trial_index":85,"time_elapsed":327519,"internal_node_id":"0.0-85.0","participant_id":"AHY3YAYJLTW32"},{"rt":8784,"responses":"{\"Q0\":\"our\"}","trial_type":"survey-text","trial_index":86,"time_elapsed":336304,"internal_node_id":"0.0-86.0-0.0","participant_id":"AHY3YAYJLTW32"},{"rt":null,"stimulus":"<p style=\"font-size: 48px;\">+</p>","key_press":null,"Name":"fixation","trial_type":"html-keyboard-response","trial_index":87,"time_elapsed":337805,"internal_node_id":"0.0-87.0","participant_id":"AHY3YAYJLTW32"},{"rt":null,"stimulus":"stimuli/2.jpg","button_pressed":null,"trial_type":"image-button-response","trial_index":88,"time_elapsed":342817,"internal_node_id":"0.0-88.0","participant_id":"AHY3YAYJLTW32"},{"rt":2756,"stimulus":"stimuli/2.jpg","button_pressed":"0","trial_type":"image-button-response","trial_index":89,"time_elapsed":345574,"internal_node_id":"0.0-89.0","participant_id":"AHY3YAYJLTW32"},{"rt":3237,"response":"15","trial_type":"image-slider-response","trial_index":90,"time_elapsed":348811,"internal_node_id":"0.0-90.0","participant_id":"AHY3YAYJLTW32"},{"rt":2097,"stimulus":"stimuli/2.jpg","button_pressed":"0","trial_type":"image-button-response","trial_index":91,"time_elapsed":350909,"internal_node_id":"0.0-91.0","participant_id":"AHY3YAYJLTW32"},{"rt":null,"stimulus":"<p style=\"font-size: 48px;\">+</p>","key_press":null,"Name":"fixation","trial_type":"html-keyboard-response","trial_index":92,"time_elapsed":351411,"internal_node_id":"0.0-92.0","participant_id":"AHY3YAYJLTW32"},{"rt":null,"stimulus":"stimuli/55.jpg","button_pressed":null,"trial_type":"image-button-response","trial_index":93,"time_elapsed":356417,"internal_node_id":"0.0-93.0","participant_id":"AHY3YAYJLTW32"},{"rt":2456,"stimulus":"stimuli/55.jpg","button_pressed":"2","trial_type":"image-button-response","trial_index":94,"time_elapsed":358873,"internal_node_id":"0.0-94.0","participant_id":"AHY3YAYJLTW32"},{"rt":3399,"response":"8","trial_type":"image-slider-response","trial_index":95,"time_elapsed":362273,"internal_node_id":"0.0-95.0","participant_id":"AHY3YAYJLTW32"},{"rt":4073,"stimulus":"stimuli/55.jpg","button_pressed":"2","trial_type":"image-button-response","trial_index":96,"time_elapsed":366348,"internal_node_id":"0.0-96.0","participant_id":"AHY3YAYJLTW32"},{"rt":null,"stimulus":"<p style=\"font-size: 48px;\">+</p>","key_press":null,"Name":"fixation","trial_type":"html-keyboard-response","trial_index":97,"time_elapsed":367349,"internal_node_id":"0.0-97.0","participant_id":"AHY3YAYJLTW32"},{"rt":null,"stimulus":"stimuli/5.jpg","button_pressed":null,"trial_type":"image-button-response","trial_index":98,"time_elapsed":372350,"internal_node_id":"0.0-98.0","participant_id":"AHY3YAYJLTW32"},{"rt":2563,"stimulus":"stimuli/5.jpg","button_pressed":"2","trial_type":"image-button-response","trial_index":99,"time_elapsed":374914,"internal_node_id":"0.0-99.0","participant_id":"AHY3YAYJLTW32"},{"rt":3283,"response":"19","trial_type":"image-slider-response","trial_index":100,"time_elapsed":378198,"internal_node_id":"0.0-100.0","participant_id":"AHY3YAYJLTW32"},{"rt":5981,"stimulus":"stimuli/5.jpg","button_pressed":"2","trial_type":"image-button-response","trial_index":101,"time_elapsed":384179,"internal_node_id":"0.0-101.0","participant_id":"AHY3YAYJLTW32"},{"rt":null,"stimulus":"<p style=\"font-size: 48px;\">+</p>","key_press":null,"Name":"fixation","trial_type":"html-keyboard-response","trial_index":102,"time_elapsed":385182,"internal_node_id":"0.0-102.0","participant_id":"AHY3YAYJLTW32"},{"rt":null,"stimulus":"stimuli/1.jpg","button_pressed":null,"trial_type":"image-button-response","trial_index":103,"time_elapsed":390186,"internal_node_id":"0.0-103.0","participant_id":"AHY3YAYJLTW32"},{"rt":3078,"stimulus":"stimuli/1.jpg","button_pressed":"0","trial_type":"image-button-response","trial_index":104,"time_elapsed":393265,"internal_node_id":"0.0-104.0","participant_id":"AHY3YAYJLTW32"},{"rt":3647,"response":"10","trial_type":"image-slider-response","trial_index":105,"time_elapsed":396914,"internal_node_id":"0.0-105.0","participant_id":"AHY3YAYJLTW32"},{"rt":1881,"stimulus":"stimuli/1.jpg","button_pressed":"0","trial_type":"image-button-response","trial_index":106,"time_elapsed":398796,"internal_node_id":"0.0-106.0","participant_id":"AHY3YAYJLTW32"},{"rt":null,"stimulus":"<p style=\"font-size: 48px;\">+</p>","key_press":null,"Name":"fixation","trial_type":"html-keyboard-response","trial_index":107,"time_elapsed":399297,"internal_node_id":"0.0-107.0","participant_id":"AHY3YAYJLTW32"},{"rt":null,"stimulus":"stimuli/58.jpg","button_pressed":null,"trial_type":"image-button-response","trial_index":108,"time_elapsed":404299,"internal_node_id":"0.0-108.0","participant_id":"AHY3YAYJLTW32"},{"rt":1101,"stimulus":"stimuli/58.jpg","button_pressed":"0","trial_type":"image-button-response","trial_index":109,"time_elapsed":405404,"internal_node_id":"0.0-109.0","participant_id":"AHY3YAYJLTW32"},{"rt":3621,"response":"15","trial_type":"image-slider-response","trial_index":110,"time_elapsed":409025,"internal_node_id":"0.0-110.0","participant_id":"AHY3YAYJLTW32"},{"rt":1219,"stimulus":"stimuli/58.jpg","button_pressed":"0","trial_type":"image-button-response","trial_index":111,"time_elapsed":410246,"internal_node_id":"0.0-111.0","participant_id":"AHY3YAYJLTW32"},{"rt":15887,"responses":"{\"Q0\":\"course\"}","trial_type":"survey-text","trial_index":112,"time_elapsed":426134,"internal_node_id":"0.0-112.0-0.0","participant_id":"AHY3YAYJLTW32"},{"rt":null,"stimulus":"<p style=\"font-size: 48px;\">+</p>","key_press":null,"Name":"fixation","trial_type":"html-keyboard-response","trial_index":113,"time_elapsed":426647,"internal_node_id":"0.0-113.0","participant_id":"AHY3YAYJLTW32"},{"rt":null,"stimulus":"stimuli/25.jpg","button_pressed":null,"trial_type":"image-button-response","trial_index":114,"time_elapsed":431649,"internal_node_id":"0.0-114.0","participant_id":"AHY3YAYJLTW32"},{"rt":2122,"stimulus":"stimuli/25.jpg","button_pressed":"2","trial_type":"image-button-response","trial_index":115,"time_elapsed":433771,"internal_node_id":"0.0-115.0","participant_id":"AHY3YAYJLTW32"},{"rt":3352,"response":"4","trial_type":"image-slider-response","trial_index":116,"time_elapsed":437124,"internal_node_id":"0.0-116.0","participant_id":"AHY3YAYJLTW32"},{"rt":1983,"stimulus":"stimuli/25.jpg","button_pressed":"2","trial_type":"image-button-response","trial_index":117,"time_elapsed":439108,"internal_node_id":"0.0-117.0","participant_id":"AHY3YAYJLTW32"},{"rt":null,"stimulus":"<p style=\"font-size: 48px;\">+</p>","key_press":null,"Name":"fixation","trial_type":"html-keyboard-response","trial_index":118,"time_elapsed":439608,"internal_node_id":"0.0-118.0","participant_id":"AHY3YAYJLTW32"},{"rt":null,"stimulus":"stimuli/19.jpg","button_pressed":null,"trial_type":"image-button-response","trial_index":119,"time_elapsed":444617,"internal_node_id":"0.0-119.0","participant_id":"AHY3YAYJLTW32"},{"rt":1151,"stimulus":"stimuli/19.jpg","button_pressed":"0","trial_type":"image-button-response","trial_index":120,"time_elapsed":445768,"internal_node_id":"0.0-120.0","participant_id":"AHY3YAYJLTW32"},{"rt":2718,"response":"22","trial_type":"image-slider-response","trial_index":121,"time_elapsed":448488,"internal_node_id":"0.0-121.0","participant_id":"AHY3YAYJLTW32"},{"rt":1385,"stimulus":"stimuli/19.jpg","button_pressed":"0","trial_type":"image-button-response","trial_index":122,"time_elapsed":449873,"internal_node_id":"0.0-122.0","participant_id":"AHY3YAYJLTW32"},{"rt":null,"stimulus":"<p style=\"font-size: 48px;\">+</p>","key_press":null,"Name":"fixation","trial_type":"html-keyboard-response","trial_index":123,"time_elapsed":450882,"internal_node_id":"0.0-123.0","participant_id":"AHY3YAYJLTW32"},{"rt":null,"stimulus":"stimuli/52.jpg","button_pressed":null,"trial_type":"image-button-response","trial_index":124,"time_elapsed":455885,"internal_node_id":"0.0-124.0","participant_id":"AHY3YAYJLTW32"},{"rt":4468,"stimulus":"stimuli/52.jpg","button_pressed":"0","trial_type":"image-button-response","trial_index":125,"time_elapsed":460353,"internal_node_id":"0.0-125.0","participant_id":"AHY3YAYJLTW32"},{"rt":5675,"response":"14","trial_type":"image-slider-response","trial_index":126,"time_elapsed":466029,"internal_node_id":"0.0-126.0","participant_id":"AHY3YAYJLTW32"},{"rt":1193,"stimulus":"stimuli/52.jpg","button_pressed":"0","trial_type":"image-button-response","trial_index":127,"time_elapsed":467224,"internal_node_id":"0.0-127.0","participant_id":"AHY3YAYJLTW32"},{"rt":null,"stimulus":"<p style=\"font-size: 48px;\">+</p>","key_press":null,"Name":"fixation","trial_type":"html-keyboard-response","trial_index":128,"time_elapsed":467736,"internal_node_id":"0.0-128.0","participant_id":"AHY3YAYJLTW32"},{"rt":null,"stimulus":"stimuli/11.jpg","button_pressed":null,"trial_type":"image-button-response","trial_index":129,"time_elapsed":472741,"internal_node_id":"0.0-129.0","participant_id":"AHY3YAYJLTW32"},{"rt":1701,"stimulus":"stimuli/11.jpg","button_pressed":"0","trial_type":"image-button-response","trial_index":130,"time_elapsed":474443,"internal_node_id":"0.0-130.0","participant_id":"AHY3YAYJLTW32"},{"rt":3266,"response":"17","trial_type":"image-slider-response","trial_index":131,"time_elapsed":477711,"internal_node_id":"0.0-131.0","participant_id":"AHY3YAYJLTW32"},{"rt":1177,"stimulus":"stimuli/11.jpg","button_pressed":"0","trial_type":"image-button-response","trial_index":132,"time_elapsed":478889,"internal_node_id":"0.0-132.0","participant_id":"AHY3YAYJLTW32"},{"rt":null,"stimulus":"<p style=\"font-size: 48px;\">+</p>","key_press":null,"Name":"fixation","trial_type":"html-keyboard-response","trial_index":133,"time_elapsed":480396,"internal_node_id":"0.0-133.0","participant_id":"AHY3YAYJLTW32"},{"rt":null,"stimulus":"stimuli/23.jpg","button_pressed":null,"trial_type":"image-button-response","trial_index":134,"time_elapsed":485416,"internal_node_id":"0.0-134.0","participant_id":"AHY3YAYJLTW32"},{"rt":2444,"stimulus":"stimuli/23.jpg","button_pressed":"0","trial_type":"image-button-response","trial_index":135,"time_elapsed":487861,"internal_node_id":"0.0-135.0","participant_id":"AHY3YAYJLTW32"},{"rt":2616,"response":"15","trial_type":"image-slider-response","trial_index":136,"time_elapsed":490477,"internal_node_id":"0.0-136.0","participant_id":"AHY3YAYJLTW32"},{"rt":1077,"stimulus":"stimuli/23.jpg","button_pressed":"0","trial_type":"image-button-response","trial_index":137,"time_elapsed":491556,"internal_node_id":"0.0-137.0","participant_id":"AHY3YAYJLTW32"},{"rt":10514,"responses":"{\"Q0\":\"we\"}","trial_type":"survey-text","trial_index":138,"time_elapsed":502071,"internal_node_id":"0.0-138.0-0.0","participant_id":"AHY3YAYJLTW32"},{"rt":null,"stimulus":"<p style=\"font-size: 48px;\">+</p>","key_press":null,"Name":"fixation","trial_type":"html-keyboard-response","trial_index":139,"time_elapsed":503586,"internal_node_id":"0.0-139.0","participant_id":"AHY3YAYJLTW32"},{"rt":null,"stimulus":"stimuli/49.jpg","button_pressed":null,"trial_type":"image-button-response","trial_index":140,"time_elapsed":508588,"internal_node_id":"0.0-140.0","participant_id":"AHY3YAYJLTW32"},{"rt":1877,"stimulus":"stimuli/49.jpg","button_pressed":"2","trial_type":"image-button-response","trial_index":141,"time_elapsed":510467,"internal_node_id":"0.0-141.0","participant_id":"AHY3YAYJLTW32"},{"rt":2734,"response":"6","trial_type":"image-slider-response","trial_index":142,"time_elapsed":513201,"internal_node_id":"0.0-142.0","participant_id":"AHY3YAYJLTW32"},{"rt":1935,"stimulus":"stimuli/49.jpg","button_pressed":"2","trial_type":"image-button-response","trial_index":143,"time_elapsed":515137,"internal_node_id":"0.0-143.0","participant_id":"AHY3YAYJLTW32"},{"rt":null,"stimulus":"<p style=\"font-size: 48px;\">+</p>","key_press":null,"Name":"fixation","trial_type":"html-keyboard-response","trial_index":144,"time_elapsed":516656,"internal_node_id":"0.0-144.0","participant_id":"AHY3YAYJLTW32"},{"rt":null,"stimulus":"stimuli/67.jpg","button_pressed":null,"trial_type":"image-button-response","trial_index":145,"time_elapsed":521666,"internal_node_id":"0.0-145.0","participant_id":"AHY3YAYJLTW32"},{"rt":1185,"stimulus":"stimuli/67.jpg","button_pressed":"0","trial_type":"image-button-response","trial_index":146,"time_elapsed":522853,"internal_node_id":"0.0-146.0","participant_id":"AHY3YAYJLTW32"},{"rt":3266,"response":"33","trial_type":"image-slider-response","trial_index":147,"time_elapsed":526121,"internal_node_id":"0.0-147.0","participant_id":"AHY3YAYJLTW32"},{"rt":2477,"stimulus":"stimuli/67.jpg","button_pressed":"0","trial_type":"image-button-response","trial_index":148,"time_elapsed":528599,"internal_node_id":"0.0-148.0","participant_id":"AHY3YAYJLTW32"},{"rt":null,"stimulus":"<p style=\"font-size: 48px;\">+</p>","key_press":null,"Name":"fixation","trial_type":"html-keyboard-response","trial_index":149,"time_elapsed":529600,"internal_node_id":"0.0-149.0","participant_id":"AHY3YAYJLTW32"},{"rt":null,"stimulus":"stimuli/59.jpg","button_pressed":null,"trial_type":"image-button-response","trial_index":150,"time_elapsed":534606,"internal_node_id":"0.0-150.0","participant_id":"AHY3YAYJLTW32"},{"rt":1156,"stimulus":"stimuli/59.jpg","button_pressed":"0","trial_type":"image-button-response","trial_index":151,"time_elapsed":535763,"internal_node_id":"0.0-151.0","participant_id":"AHY3YAYJLTW32"},{"rt":3286,"response":"11","trial_type":"image-slider-response","trial_index":152,"time_elapsed":539050,"internal_node_id":"0.0-152.0","participant_id":"AHY3YAYJLTW32"},{"rt":1185,"stimulus":"stimuli/59.jpg","button_pressed":"0","trial_type":"image-button-response","trial_index":153,"time_elapsed":540236,"internal_node_id":"0.0-153.0","participant_id":"AHY3YAYJLTW32"},{"rt":null,"stimulus":"<p style=\"font-size: 48px;\">+</p>","key_press":null,"Name":"fixation","trial_type":"html-keyboard-response","trial_index":154,"time_elapsed":540738,"internal_node_id":"0.0-154.0","participant_id":"AHY3YAYJLTW32"},{"rt":null,"stimulus":"stimuli/53.jpg","button_pressed":null,"trial_type":"image-button-response","trial_index":155,"time_elapsed":545741,"internal_node_id":"0.0-155.0","participant_id":"AHY3YAYJLTW32"},{"rt":2473,"stimulus":"stimuli/53.jpg","button_pressed":"2","trial_type":"image-button-response","trial_index":156,"time_elapsed":548214,"internal_node_id":"0.0-156.0","participant_id":"AHY3YAYJLTW32"},{"rt":3313,"response":"11","trial_type":"image-slider-response","trial_index":157,"time_elapsed":551528,"internal_node_id":"0.0-157.0","participant_id":"AHY3YAYJLTW32"},{"rt":2261,"stimulus":"stimuli/53.jpg","button_pressed":"2","trial_type":"image-button-response","trial_index":158,"time_elapsed":553790,"internal_node_id":"0.0-158.0","participant_id":"AHY3YAYJLTW32"},{"rt":null,"stimulus":"<p style=\"font-size: 48px;\">+</p>","key_press":null,"Name":"fixation","trial_type":"html-keyboard-response","trial_index":159,"time_elapsed":554292,"internal_node_id":"0.0-159.0","participant_id":"AHY3YAYJLTW32"},{"rt":null,"stimulus":"stimuli/63.jpg","button_pressed":null,"trial_type":"image-button-response","trial_index":160,"time_elapsed":559293,"internal_node_id":"0.0-160.0","participant_id":"AHY3YAYJLTW32"},{"rt":1943,"stimulus":"stimuli/63.jpg","button_pressed":"2","trial_type":"image-button-response","trial_index":161,"time_elapsed":561236,"internal_node_id":"0.0-161.0","participant_id":"AHY3YAYJLTW32"},{"rt":2645,"response":"14","trial_type":"image-slider-response","trial_index":162,"time_elapsed":563882,"internal_node_id":"0.0-162.0","participant_id":"AHY3YAYJLTW32"},{"rt":1306,"stimulus":"stimuli/63.jpg","button_pressed":"2","trial_type":"image-button-response","trial_index":163,"time_elapsed":565190,"internal_node_id":"0.0-163.0","participant_id":"AHY3YAYJLTW32"},{"rt":5193,"stimulus":"stimuli/ins/Slide8.JPG","button_pressed":"0","trial_type":"image-button-response","trial_index":164,"time_elapsed":570383,"internal_node_id":"0.0-164.0","participant_id":"AHY3YAYJLTW32"}]