[{"rt":9820,"responses":"{\"Q0\":\"AQ9Y6WD8O72ZC\"}","trial_type":"survey-text","trial_index":0,"time_elapsed":9829,"internal_node_id":"0.0-0.0-0.0","participant_id":"AQ9Y6WD8O72ZC"},{"rt":39985,"stimulus":"stimuli/ins/Slide1.JPG","button_pressed":"0","Name":"instructions","trial_type":"image-button-response","trial_index":1,"time_elapsed":49821,"internal_node_id":"0.0-1.0","participant_id":"AQ9Y6WD8O72ZC"},{"rt":3789,"stimulus":"stimuli/ins/Slide2.JPG","button_pressed":"0","Name":"instructions","trial_type":"image-button-response","trial_index":2,"time_elapsed":53613,"internal_node_id":"0.0-2.0","participant_id":"AQ9Y6WD8O72ZC"},{"rt":5606,"stimulus":"stimuli/ins/Slide3.JPG","button_pressed":"0","Name":"instructions","trial_type":"image-button-response","trial_index":3,"time_elapsed":59221,"internal_node_id":"0.0-3.0","participant_id":"AQ9Y6WD8O72ZC"},{"rt":7374,"stimulus":"stimuli/ins/Slide4.JPG","button_pressed":"0","Name":"instructions","trial_type":"image-button-response","trial_index":4,"time_elapsed":66596,"internal_node_id":"0.0-4.0","participant_id":"AQ9Y6WD8O72ZC"},{"rt":3958,"stimulus":"stimuli/ins/Slide5.JPG","button_pressed":"0","Name":"instructions","trial_type":"image-button-response","trial_index":5,"time_elapsed":70557,"internal_node_id":"0.0-5.0","participant_id":"AQ9Y6WD8O72ZC"},{"rt":9282,"stimulus":"stimuli/ins/Slide6.JPG","button_pressed":"0","Name":"instructions","trial_type":"image-button-response","trial_index":6,"time_elapsed":79841,"internal_node_id":"0.0-6.0","participant_id":"AQ9Y6WD8O72ZC"},{"rt":1562,"stimulus":"stimuli/ins/Slide7.JPG","button_pressed":"0","Name":"instructions","trial_type":"image-button-response","trial_index":7,"time_elapsed":81405,"internal_node_id":"0.0-7.0","participant_id":"AQ9Y6WD8O72ZC"},{"rt":6492,"responses":"{\"Q0\":\"but\"}","trial_type":"survey-text","trial_index":8,"time_elapsed":87901,"internal_node_id":"0.0-8.0-0.0","participant_id":"AQ9Y6WD8O72ZC"},{"rt":null,"stimulus":"<p style=\"font-size: 48px;\">+</p>","key_press":null,"Name":"fixation","trial_type":"html-keyboard-response","trial_index":9,"time_elapsed":88412,"internal_node_id":"0.0-9.0","participant_id":"AQ9Y6WD8O72ZC"},{"rt":null,"stimulus":"stimuli/27.jpg","button_pressed":null,"trial_type":"image-button-response","trial_index":10,"time_elapsed":93422,"internal_node_id":"0.0-10.0","participant_id":"AQ9Y6WD8O72ZC"},{"rt":2480,"stimulus":"stimuli/27.jpg","button_pressed":"0","trial_type":"image-button-response","trial_index":11,"time_elapsed":95909,"internal_node_id":"0.0-11.0","participant_id":"AQ9Y6WD8O72ZC"},{"rt":3011,"response":"31","trial_type":"image-slider-response","trial_index":12,"time_elapsed":98924,"internal_node_id":"0.0-12.0","participant_id":"AQ9Y6WD8O72ZC"},{"rt":3444,"stimulus":"stimuli/27.jpg","button_pressed":"1","trial_type":"image-button-response","trial_index":13,"time_elapsed":102373,"internal_node_id":"0.0-13.0","participant_id":"AQ9Y6WD8O72ZC"},{"rt":null,"stimulus":"<p style=\"font-size: 48px;\">+</p>","key_press":null,"Name":"fixation","trial_type":"html-keyboard-response","trial_index":14,"time_elapsed":103888,"internal_node_id":"0.0-14.0","participant_id":"AQ9Y6WD8O72ZC"},{"rt":null,"stimulus":"stimuli/53.jpg","button_pressed":null,"trial_type":"image-button-response","trial_index":15,"time_elapsed":108902,"internal_node_id":"0.0-15.0","participant_id":"AQ9Y6WD8O72ZC"},{"rt":2301,"stimulus":"stimuli/53.jpg","button_pressed":"0","trial_type":"image-button-response","trial_index":16,"time_elapsed":111212,"internal_node_id":"0.0-16.0","participant_id":"AQ9Y6WD8O72ZC"},{"rt":3269,"response":"27","trial_type":"image-slider-response","trial_index":17,"time_elapsed":114485,"internal_node_id":"0.0-17.0","participant_id":"AQ9Y6WD8O72ZC"},{"rt":1420,"stimulus":"stimuli/53.jpg","button_pressed":"0","trial_type":"image-button-response","trial_index":18,"time_elapsed":115909,"internal_node_id":"0.0-18.0","participant_id":"AQ9Y6WD8O72ZC"},{"rt":null,"stimulus":"<p style=\"font-size: 48px;\">+</p>","key_press":null,"Name":"fixation","trial_type":"html-keyboard-response","trial_index":19,"time_elapsed":117419,"internal_node_id":"0.0-19.0","participant_id":"AQ9Y6WD8O72ZC"},{"rt":null,"stimulus":"stimuli/13.jpg","button_pressed":null,"trial_type":"image-button-response","trial_index":20,"time_elapsed":122441,"internal_node_id":"0.0-20.0","participant_id":"AQ9Y6WD8O72ZC"},{"rt":5056,"stimulus":"stimuli/13.jpg","button_pressed":"0","trial_type":"image-button-response","trial_index":21,"time_elapsed":127501,"internal_node_id":"0.0-21.0","participant_id":"AQ9Y6WD8O72ZC"},{"rt":2869,"response":"31","trial_type":"image-slider-response","trial_index":22,"time_elapsed":130373,"internal_node_id":"0.0-22.0","participant_id":"AQ9Y6WD8O72ZC"},{"rt":989,"stimulus":"stimuli/13.jpg","button_pressed":"1","trial_type":"image-button-response","trial_index":23,"time_elapsed":131365,"internal_node_id":"0.0-23.0","participant_id":"AQ9Y6WD8O72ZC"},{"rt":null,"stimulus":"<p style=\"font-size: 48px;\">+</p>","key_press":null,"Name":"fixation","trial_type":"html-keyboard-response","trial_index":24,"time_elapsed":132370,"internal_node_id":"0.0-24.0","participant_id":"AQ9Y6WD8O72ZC"},{"rt":null,"stimulus":"stimuli/51.jpg","button_pressed":null,"trial_type":"image-button-response","trial_index":25,"time_elapsed":137384,"internal_node_id":"0.0-25.0","participant_id":"AQ9Y6WD8O72ZC"},{"rt":4600,"stimulus":"stimuli/51.jpg","button_pressed":"0","trial_type":"image-button-response","trial_index":26,"time_elapsed":141989,"internal_node_id":"0.0-26.0","participant_id":"AQ9Y6WD8O72ZC"},{"rt":3029,"response":"28","trial_type":"image-slider-response","trial_index":27,"time_elapsed":145021,"internal_node_id":"0.0-27.0","participant_id":"AQ9Y6WD8O72ZC"},{"rt":877,"stimulus":"stimuli/51.jpg","button_pressed":"1","trial_type":"image-button-response","trial_index":28,"time_elapsed":145901,"internal_node_id":"0.0-28.0","participant_id":"AQ9Y6WD8O72ZC"},{"rt":null,"stimulus":"<p style=\"font-size: 48px;\">+</p>","key_press":null,"Name":"fixation","trial_type":"html-keyboard-response","trial_index":29,"time_elapsed":146911,"internal_node_id":"0.0-29.0","participant_id":"AQ9Y6WD8O72ZC"},{"rt":null,"stimulus":"stimuli/5.jpg","button_pressed":null,"trial_type":"image-button-response","trial_index":30,"time_elapsed":151932,"internal_node_id":"0.0-30.0","participant_id":"AQ9Y6WD8O72ZC"},{"rt":1053,"stimulus":"stimuli/5.jpg","button_pressed":"2","trial_type":"image-button-response","trial_index":31,"time_elapsed":152989,"internal_node_id":"0.0-31.0","participant_id":"AQ9Y6WD8O72ZC"},{"rt":2500,"response":"50","trial_type":"image-slider-response","trial_index":32,"time_elapsed":155493,"internal_node_id":"0.0-32.0","participant_id":"AQ9Y6WD8O72ZC"},{"rt":3574,"stimulus":"stimuli/5.jpg","button_pressed":"2","trial_type":"image-button-response","trial_index":33,"time_elapsed":159070,"internal_node_id":"0.0-33.0","participant_id":"AQ9Y6WD8O72ZC"},{"rt":4340,"responses":"{\"Q0\":\"rock\"}","trial_type":"survey-text","trial_index":34,"time_elapsed":163413,"internal_node_id":"0.0-34.0-0.0","participant_id":"AQ9Y6WD8O72ZC"},{"rt":null,"stimulus":"<p style=\"font-size: 48px;\">+</p>","key_press":null,"Name":"fixation","trial_type":"html-keyboard-response","trial_index":35,"time_elapsed":164918,"internal_node_id":"0.0-35.0","participant_id":"AQ9Y6WD8O72ZC"},{"rt":null,"stimulus":"stimuli/37.jpg","button_pressed":null,"trial_type":"image-button-response","trial_index":36,"time_elapsed":169922,"internal_node_id":"0.0-36.0","participant_id":"AQ9Y6WD8O72ZC"},{"rt":1216,"stimulus":"stimuli/37.jpg","button_pressed":"0","trial_type":"image-button-response","trial_index":37,"time_elapsed":171141,"internal_node_id":"0.0-37.0","participant_id":"AQ9Y6WD8O72ZC"},{"rt":2022,"response":"42","trial_type":"image-slider-response","trial_index":38,"time_elapsed":173166,"internal_node_id":"0.0-38.0","participant_id":"AQ9Y6WD8O72ZC"},{"rt":884,"stimulus":"stimuli/37.jpg","button_pressed":"0","trial_type":"image-button-response","trial_index":39,"time_elapsed":174053,"internal_node_id":"0.0-39.0","participant_id":"AQ9Y6WD8O72ZC"},{"rt":null,"stimulus":"<p style=\"font-size: 48px;\">+</p>","key_press":null,"Name":"fixation","trial_type":"html-keyboard-response","trial_index":40,"time_elapsed":175571,"internal_node_id":"0.0-40.0","participant_id":"AQ9Y6WD8O72ZC"},{"rt":null,"stimulus":"stimuli/66.jpg","button_pressed":null,"trial_type":"image-button-response","trial_index":41,"time_elapsed":180590,"internal_node_id":"0.0-41.0","participant_id":"AQ9Y6WD8O72ZC"},{"rt":1149,"stimulus":"stimuli/66.jpg","button_pressed":"0","trial_type":"image-button-response","trial_index":42,"time_elapsed":181741,"internal_node_id":"0.0-42.0","participant_id":"AQ9Y6WD8O72ZC"},{"rt":1653,"response":"32","trial_type":"image-slider-response","trial_index":43,"time_elapsed":183397,"internal_node_id":"0.0-43.0","participant_id":"AQ9Y6WD8O72ZC"},{"rt":1086,"stimulus":"stimuli/66.jpg","button_pressed":"0","trial_type":"image-button-response","trial_index":44,"time_elapsed":184486,"internal_node_id":"0.0-44.0","participant_id":"AQ9Y6WD8O72ZC"},{"rt":null,"stimulus":"<p style=\"font-size: 48px;\">+</p>","key_press":null,"Name":"fixation","trial_type":"html-keyboard-response","trial_index":45,"time_elapsed":185991,"internal_node_id":"0.0-45.0","participant_id":"AQ9Y6WD8O72ZC"},{"rt":null,"stimulus":"stimuli/9.jpg","button_pressed":null,"trial_type":"image-button-response","trial_index":46,"time_elapsed":190996,"internal_node_id":"0.0-46.0","participant_id":"AQ9Y6WD8O72ZC"},{"rt":1309,"stimulus":"stimuli/9.jpg","button_pressed":"0","trial_type":"image-button-response","trial_index":47,"time_elapsed":192309,"internal_node_id":"0.0-47.0","participant_id":"AQ9Y6WD8O72ZC"},{"rt":2541,"response":"45","trial_type":"image-slider-response","trial_index":48,"time_elapsed":194853,"internal_node_id":"0.0-48.0","participant_id":"AQ9Y6WD8O72ZC"},{"rt":1103,"stimulus":"stimuli/9.jpg","button_pressed":"1","trial_type":"image-button-response","trial_index":49,"time_elapsed":195958,"internal_node_id":"0.0-49.0","participant_id":"AQ9Y6WD8O72ZC"},{"rt":null,"stimulus":"<p style=\"font-size: 48px;\">+</p>","key_press":null,"Name":"fixation","trial_type":"html-keyboard-response","trial_index":50,"time_elapsed":196461,"internal_node_id":"0.0-50.0","participant_id":"AQ9Y6WD8O72ZC"},{"rt":null,"stimulus":"stimuli/6.jpg","button_pressed":null,"trial_type":"image-button-response","trial_index":51,"time_elapsed":201477,"internal_node_id":"0.0-51.0","participant_id":"AQ9Y6WD8O72ZC"},{"rt":1515,"stimulus":"stimuli/6.jpg","button_pressed":"0","trial_type":"image-button-response","trial_index":52,"time_elapsed":202997,"internal_node_id":"0.0-52.0","participant_id":"AQ9Y6WD8O72ZC"},{"rt":3133,"response":"47","trial_type":"image-slider-response","trial_index":53,"time_elapsed":206133,"internal_node_id":"0.0-53.0","participant_id":"AQ9Y6WD8O72ZC"},{"rt":2662,"stimulus":"stimuli/6.jpg","button_pressed":"1","trial_type":"image-button-response","trial_index":54,"time_elapsed":208798,"internal_node_id":"0.0-54.0","participant_id":"AQ9Y6WD8O72ZC"},{"rt":null,"stimulus":"<p style=\"font-size: 48px;\">+</p>","key_press":null,"Name":"fixation","trial_type":"html-keyboard-response","trial_index":55,"time_elapsed":209304,"internal_node_id":"0.0-55.0","participant_id":"AQ9Y6WD8O72ZC"},{"rt":null,"stimulus":"stimuli/3.jpg","button_pressed":null,"trial_type":"image-button-response","trial_index":56,"time_elapsed":215132,"internal_node_id":"0.0-56.0","participant_id":"AQ9Y6WD8O72ZC"},{"rt":1591,"stimulus":"stimuli/3.jpg","button_pressed":"0","trial_type":"image-button-response","trial_index":57,"time_elapsed":216725,"internal_node_id":"0.0-57.0","participant_id":"AQ9Y6WD8O72ZC"},{"rt":2717,"response":"31","trial_type":"image-slider-response","trial_index":58,"time_elapsed":219446,"internal_node_id":"0.0-58.0","participant_id":"AQ9Y6WD8O72ZC"},{"rt":692,"stimulus":"stimuli/3.jpg","button_pressed":"0","trial_type":"image-button-response","trial_index":59,"time_elapsed":220141,"internal_node_id":"0.0-59.0","participant_id":"AQ9Y6WD8O72ZC"},{"rt":7151,"responses":"{\"Q0\":\"sky\"}","trial_type":"survey-text","trial_index":60,"time_elapsed":227295,"internal_node_id":"0.0-60.0-0.0","participant_id":"AQ9Y6WD8O72ZC"},{"rt":null,"stimulus":"<p style=\"font-size: 48px;\">+</p>","key_press":null,"Name":"fixation","trial_type":"html-keyboard-response","trial_index":61,"time_elapsed":228299,"internal_node_id":"0.0-61.0","participant_id":"AQ9Y6WD8O72ZC"},{"rt":null,"stimulus":"stimuli/42.jpg","button_pressed":null,"trial_type":"image-button-response","trial_index":62,"time_elapsed":233303,"internal_node_id":"0.0-62.0","participant_id":"AQ9Y6WD8O72ZC"},{"rt":1084,"stimulus":"stimuli/42.jpg","button_pressed":"0","trial_type":"image-button-response","trial_index":63,"time_elapsed":234389,"internal_node_id":"0.0-63.0","participant_id":"AQ9Y6WD8O72ZC"},{"rt":2733,"response":"17","trial_type":"image-slider-response","trial_index":64,"time_elapsed":237125,"internal_node_id":"0.0-64.0","participant_id":"AQ9Y6WD8O72ZC"},{"rt":1388,"stimulus":"stimuli/42.jpg","button_pressed":"0","trial_type":"image-button-response","trial_index":65,"time_elapsed":238517,"internal_node_id":"0.0-65.0","participant_id":"AQ9Y6WD8O72ZC"},{"rt":null,"stimulus":"<p style=\"font-size: 48px;\">+</p>","key_press":null,"Name":"fixation","trial_type":"html-keyboard-response","trial_index":66,"time_elapsed":239021,"internal_node_id":"0.0-66.0","participant_id":"AQ9Y6WD8O72ZC"},{"rt":null,"stimulus":"stimuli/29.jpg","button_pressed":null,"trial_type":"image-button-response","trial_index":67,"time_elapsed":244039,"internal_node_id":"0.0-67.0","participant_id":"AQ9Y6WD8O72ZC"},{"rt":1586,"stimulus":"stimuli/29.jpg","button_pressed":"0","trial_type":"image-button-response","trial_index":68,"time_elapsed":245645,"internal_node_id":"0.0-68.0","participant_id":"AQ9Y6WD8O72ZC"},{"rt":1548,"response":"38","trial_type":"image-slider-response","trial_index":69,"time_elapsed":247197,"internal_node_id":"0.0-69.0","participant_id":"AQ9Y6WD8O72ZC"},{"rt":781,"stimulus":"stimuli/29.jpg","button_pressed":"1","trial_type":"image-button-response","trial_index":70,"time_elapsed":247982,"internal_node_id":"0.0-70.0","participant_id":"AQ9Y6WD8O72ZC"},{"rt":null,"stimulus":"<p style=\"font-size: 48px;\">+</p>","key_press":null,"Name":"fixation","trial_type":"html-keyboard-response","trial_index":71,"time_elapsed":248488,"internal_node_id":"0.0-71.0","participant_id":"AQ9Y6WD8O72ZC"},{"rt":null,"stimulus":"stimuli/54.jpg","button_pressed":null,"trial_type":"image-button-response","trial_index":72,"time_elapsed":253491,"internal_node_id":"0.0-72.0","participant_id":"AQ9Y6WD8O72ZC"},{"rt":1574,"stimulus":"stimuli/54.jpg","button_pressed":"0","trial_type":"image-button-response","trial_index":73,"time_elapsed":255069,"internal_node_id":"0.0-73.0","participant_id":"AQ9Y6WD8O72ZC"},{"rt":8149,"response":"15","trial_type":"image-slider-response","trial_index":74,"time_elapsed":263221,"internal_node_id":"0.0-74.0","participant_id":"AQ9Y6WD8O72ZC"},{"rt":1349,"stimulus":"stimuli/54.jpg","button_pressed":"1","trial_type":"image-button-response","trial_index":75,"time_elapsed":264578,"internal_node_id":"0.0-75.0","participant_id":"AQ9Y6WD8O72ZC"},{"rt":null,"stimulus":"<p style=\"font-size: 48px;\">+</p>","key_press":null,"Name":"fixation","trial_type":"html-keyboard-response","trial_index":76,"time_elapsed":265589,"internal_node_id":"0.0-76.0","participant_id":"AQ9Y6WD8O72ZC"},{"rt":null,"stimulus":"stimuli/48.jpg","button_pressed":null,"trial_type":"image-button-response","trial_index":77,"time_elapsed":270596,"internal_node_id":"0.0-77.0","participant_id":"AQ9Y6WD8O72ZC"},{"rt":1099,"stimulus":"stimuli/48.jpg","button_pressed":"0","trial_type":"image-button-response","trial_index":78,"time_elapsed":271701,"internal_node_id":"0.0-78.0","participant_id":"AQ9Y6WD8O72ZC"},{"rt":1901,"response":"22","trial_type":"image-slider-response","trial_index":79,"time_elapsed":273605,"internal_node_id":"0.0-79.0","participant_id":"AQ9Y6WD8O72ZC"},{"rt":877,"stimulus":"stimuli/48.jpg","button_pressed":"0","trial_type":"image-button-response","trial_index":80,"time_elapsed":274485,"internal_node_id":"0.0-80.0","participant_id":"AQ9Y6WD8O72ZC"},{"rt":null,"stimulus":"<p style=\"font-size: 48px;\">+</p>","key_press":null,"Name":"fixation","trial_type":"html-keyboard-response","trial_index":81,"time_elapsed":275997,"internal_node_id":"0.0-81.0","participant_id":"AQ9Y6WD8O72ZC"},{"rt":null,"stimulus":"stimuli/8.jpg","button_pressed":null,"trial_type":"image-button-response","trial_index":82,"time_elapsed":281005,"internal_node_id":"0.0-82.0","participant_id":"AQ9Y6WD8O72ZC"},{"rt":1134,"stimulus":"stimuli/8.jpg","button_pressed":"0","trial_type":"image-button-response","trial_index":83,"time_elapsed":282141,"internal_node_id":"0.0-83.0","participant_id":"AQ9Y6WD8O72ZC"},{"rt":1813,"response":"24","trial_type":"image-slider-response","trial_index":84,"time_elapsed":283957,"internal_node_id":"0.0-84.0","participant_id":"AQ9Y6WD8O72ZC"},{"rt":773,"stimulus":"stimuli/8.jpg","button_pressed":"0","trial_type":"image-button-response","trial_index":85,"time_elapsed":284733,"internal_node_id":"0.0-85.0","participant_id":"AQ9Y6WD8O72ZC"},{"rt":4695,"responses":"{\"Q0\":\"our\"}","trial_type":"survey-text","trial_index":86,"time_elapsed":289429,"internal_node_id":"0.0-86.0-0.0","participant_id":"AQ9Y6WD8O72ZC"},{"rt":null,"stimulus":"<p style=\"font-size: 48px;\">+</p>","key_press":null,"Name":"fixation","trial_type":"html-keyboard-response","trial_index":87,"time_elapsed":289941,"internal_node_id":"0.0-87.0","participant_id":"AQ9Y6WD8O72ZC"},{"rt":null,"stimulus":"stimuli/21.jpg","button_pressed":null,"trial_type":"image-button-response","trial_index":88,"time_elapsed":294959,"internal_node_id":"0.0-88.0","participant_id":"AQ9Y6WD8O72ZC"},{"rt":1307,"stimulus":"stimuli/21.jpg","button_pressed":"0","trial_type":"image-button-response","trial_index":89,"time_elapsed":296269,"internal_node_id":"0.0-89.0","participant_id":"AQ9Y6WD8O72ZC"},{"rt":2549,"response":"44","trial_type":"image-slider-response","trial_index":90,"time_elapsed":298821,"internal_node_id":"0.0-90.0","participant_id":"AQ9Y6WD8O72ZC"},{"rt":629,"stimulus":"stimuli/21.jpg","button_pressed":"1","trial_type":"image-button-response","trial_index":91,"time_elapsed":299454,"internal_node_id":"0.0-91.0","participant_id":"AQ9Y6WD8O72ZC"},{"rt":null,"stimulus":"<p style=\"font-size: 48px;\">+</p>","key_press":null,"Name":"fixation","trial_type":"html-keyboard-response","trial_index":92,"time_elapsed":300464,"internal_node_id":"0.0-92.0","participant_id":"AQ9Y6WD8O72ZC"},{"rt":null,"stimulus":"stimuli/10.jpg","button_pressed":null,"trial_type":"image-button-response","trial_index":93,"time_elapsed":305473,"internal_node_id":"0.0-93.0","participant_id":"AQ9Y6WD8O72ZC"},{"rt":1008,"stimulus":"stimuli/10.jpg","button_pressed":"0","trial_type":"image-button-response","trial_index":94,"time_elapsed":306485,"internal_node_id":"0.0-94.0","participant_id":"AQ9Y6WD8O72ZC"},{"rt":1556,"response":"10","trial_type":"image-slider-response","trial_index":95,"time_elapsed":308045,"internal_node_id":"0.0-95.0","participant_id":"AQ9Y6WD8O72ZC"},{"rt":1053,"stimulus":"stimuli/10.jpg","button_pressed":"0","trial_type":"image-button-response","trial_index":96,"time_elapsed":309100,"internal_node_id":"0.0-96.0","participant_id":"AQ9Y6WD8O72ZC"},{"rt":null,"stimulus":"<p style=\"font-size: 48px;\">+</p>","key_press":null,"Name":"fixation","trial_type":"html-keyboard-response","trial_index":97,"time_elapsed":310617,"internal_node_id":"0.0-97.0","participant_id":"AQ9Y6WD8O72ZC"},{"rt":null,"stimulus":"stimuli/49.jpg","button_pressed":null,"trial_type":"image-button-response","trial_index":98,"time_elapsed":315623,"internal_node_id":"0.0-98.0","participant_id":"AQ9Y6WD8O72ZC"},{"rt":1065,"stimulus":"stimuli/49.jpg","button_pressed":"0","trial_type":"image-button-response","trial_index":99,"time_elapsed":316693,"internal_node_id":"0.0-99.0","participant_id":"AQ9Y6WD8O72ZC"},{"rt":1325,"response":"58","trial_type":"image-slider-response","trial_index":100,"time_elapsed":318021,"internal_node_id":"0.0-100.0","participant_id":"AQ9Y6WD8O72ZC"},{"rt":732,"stimulus":"stimuli/49.jpg","button_pressed":"0","trial_type":"image-button-response","trial_index":101,"time_elapsed":318757,"internal_node_id":"0.0-101.0","participant_id":"AQ9Y6WD8O72ZC"},{"rt":null,"stimulus":"<p style=\"font-size: 48px;\">+</p>","key_press":null,"Name":"fixation","trial_type":"html-keyboard-response","trial_index":102,"time_elapsed":320276,"internal_node_id":"0.0-102.0","participant_id":"AQ9Y6WD8O72ZC"},{"rt":null,"stimulus":"stimuli/19.jpg","button_pressed":null,"trial_type":"image-button-response","trial_index":103,"time_elapsed":325289,"internal_node_id":"0.0-103.0","participant_id":"AQ9Y6WD8O72ZC"},{"rt":1160,"stimulus":"stimuli/19.jpg","button_pressed":"0","trial_type":"image-button-response","trial_index":104,"time_elapsed":326453,"internal_node_id":"0.0-104.0","participant_id":"AQ9Y6WD8O72ZC"},{"rt":1653,"response":"28","trial_type":"image-slider-response","trial_index":105,"time_elapsed":328109,"internal_node_id":"0.0-105.0","participant_id":"AQ9Y6WD8O72ZC"},{"rt":1053,"stimulus":"stimuli/19.jpg","button_pressed":"1","trial_type":"image-button-response","trial_index":106,"time_elapsed":329165,"internal_node_id":"0.0-106.0","participant_id":"AQ9Y6WD8O72ZC"},{"rt":null,"stimulus":"<p style=\"font-size: 48px;\">+</p>","key_press":null,"Name":"fixation","trial_type":"html-keyboard-response","trial_index":107,"time_elapsed":329673,"internal_node_id":"0.0-107.0","participant_id":"AQ9Y6WD8O72ZC"},{"rt":null,"stimulus":"stimuli/1.jpg","button_pressed":null,"trial_type":"image-button-response","trial_index":108,"time_elapsed":334676,"internal_node_id":"0.0-108.0","participant_id":"AQ9Y6WD8O72ZC"},{"rt":982,"stimulus":"stimuli/1.jpg","button_pressed":"0","trial_type":"image-button-response","trial_index":109,"time_elapsed":335661,"internal_node_id":"0.0-109.0","participant_id":"AQ9Y6WD8O72ZC"},{"rt":1876,"response":"19","trial_type":"image-slider-response","trial_index":110,"time_elapsed":337541,"internal_node_id":"0.0-110.0","participant_id":"AQ9Y6WD8O72ZC"},{"rt":909,"stimulus":"stimuli/1.jpg","button_pressed":"1","trial_type":"image-button-response","trial_index":111,"time_elapsed":338453,"internal_node_id":"0.0-111.0","participant_id":"AQ9Y6WD8O72ZC"},{"rt":7909,"responses":"{\"Q0\":\"course\"}","trial_type":"survey-text","trial_index":112,"time_elapsed":346365,"internal_node_id":"0.0-112.0-0.0","participant_id":"AQ9Y6WD8O72ZC"},{"rt":null,"stimulus":"<p style=\"font-size: 48px;\">+</p>","key_press":null,"Name":"fixation","trial_type":"html-keyboard-response","trial_index":113,"time_elapsed":346881,"internal_node_id":"0.0-113.0","participant_id":"AQ9Y6WD8O72ZC"},{"rt":null,"stimulus":"stimuli/41.jpg","button_pressed":null,"trial_type":"image-button-response","trial_index":114,"time_elapsed":351897,"internal_node_id":"0.0-114.0","participant_id":"AQ9Y6WD8O72ZC"},{"rt":1303,"stimulus":"stimuli/41.jpg","button_pressed":"0","trial_type":"image-button-response","trial_index":115,"time_elapsed":353204,"internal_node_id":"0.0-115.0","participant_id":"AQ9Y6WD8O72ZC"},{"rt":2013,"response":"21","trial_type":"image-slider-response","trial_index":116,"time_elapsed":355220,"internal_node_id":"0.0-116.0","participant_id":"AQ9Y6WD8O72ZC"},{"rt":1678,"stimulus":"stimuli/41.jpg","button_pressed":"0","trial_type":"image-button-response","trial_index":117,"time_elapsed":356901,"internal_node_id":"0.0-117.0","participant_id":"AQ9Y6WD8O72ZC"},{"rt":null,"stimulus":"<p style=\"font-size: 48px;\">+</p>","key_press":null,"Name":"fixation","trial_type":"html-keyboard-response","trial_index":118,"time_elapsed":358415,"internal_node_id":"0.0-118.0","participant_id":"AQ9Y6WD8O72ZC"},{"rt":null,"stimulus":"stimuli/67.jpg","button_pressed":null,"trial_type":"image-button-response","trial_index":119,"time_elapsed":363427,"internal_node_id":"0.0-119.0","participant_id":"AQ9Y6WD8O72ZC"},{"rt":1429,"stimulus":"stimuli/67.jpg","button_pressed":"0","trial_type":"image-button-response","trial_index":120,"time_elapsed":364861,"internal_node_id":"0.0-120.0","participant_id":"AQ9Y6WD8O72ZC"},{"rt":1853,"response":"21","trial_type":"image-slider-response","trial_index":121,"time_elapsed":366717,"internal_node_id":"0.0-121.0","participant_id":"AQ9Y6WD8O72ZC"},{"rt":1062,"stimulus":"stimuli/67.jpg","button_pressed":"1","trial_type":"image-button-response","trial_index":122,"time_elapsed":367782,"internal_node_id":"0.0-122.0","participant_id":"AQ9Y6WD8O72ZC"},{"rt":null,"stimulus":"<p style=\"font-size: 48px;\">+</p>","key_press":null,"Name":"fixation","trial_type":"html-keyboard-response","trial_index":123,"time_elapsed":369286,"internal_node_id":"0.0-123.0","participant_id":"AQ9Y6WD8O72ZC"},{"rt":null,"stimulus":"stimuli/60.jpg","button_pressed":null,"trial_type":"image-button-response","trial_index":124,"time_elapsed":375279,"internal_node_id":"0.0-124.0","participant_id":"AQ9Y6WD8O72ZC"},{"rt":28311,"stimulus":"stimuli/60.jpg","button_pressed":"0","trial_type":"image-button-response","trial_index":125,"time_elapsed":403606,"internal_node_id":"0.0-125.0","participant_id":"AQ9Y6WD8O72ZC"},{"rt":2349,"response":"14","trial_type":"image-slider-response","trial_index":126,"time_elapsed":405958,"internal_node_id":"0.0-126.0","participant_id":"AQ9Y6WD8O72ZC"},{"rt":788,"stimulus":"stimuli/60.jpg","button_pressed":"0","trial_type":"image-button-response","trial_index":127,"time_elapsed":406749,"internal_node_id":"0.0-127.0","participant_id":"AQ9Y6WD8O72ZC"},{"rt":null,"stimulus":"<p style=\"font-size: 48px;\">+</p>","key_press":null,"Name":"fixation","trial_type":"html-keyboard-response","trial_index":128,"time_elapsed":408299,"internal_node_id":"0.0-128.0","participant_id":"AQ9Y6WD8O72ZC"},{"rt":null,"stimulus":"stimuli/17.jpg","button_pressed":null,"trial_type":"image-button-response","trial_index":129,"time_elapsed":413303,"internal_node_id":"0.0-129.0","participant_id":"AQ9Y6WD8O72ZC"},{"rt":1149,"stimulus":"stimuli/17.jpg","button_pressed":"0","trial_type":"image-button-response","trial_index":130,"time_elapsed":414454,"internal_node_id":"0.0-130.0","participant_id":"AQ9Y6WD8O72ZC"},{"rt":1613,"response":"35","trial_type":"image-slider-response","trial_index":131,"time_elapsed":416069,"internal_node_id":"0.0-131.0","participant_id":"AQ9Y6WD8O72ZC"},{"rt":750,"stimulus":"stimuli/17.jpg","button_pressed":"1","trial_type":"image-button-response","trial_index":132,"time_elapsed":416822,"internal_node_id":"0.0-132.0","participant_id":"AQ9Y6WD8O72ZC"},{"rt":null,"stimulus":"<p style=\"font-size: 48px;\">+</p>","key_press":null,"Name":"fixation","trial_type":"html-keyboard-response","trial_index":133,"time_elapsed":417834,"internal_node_id":"0.0-133.0","participant_id":"AQ9Y6WD8O72ZC"},{"rt":null,"stimulus":"stimuli/43.jpg","button_pressed":null,"trial_type":"image-button-response","trial_index":134,"time_elapsed":422841,"internal_node_id":"0.0-134.0","participant_id":"AQ9Y6WD8O72ZC"},{"rt":1049,"stimulus":"stimuli/43.jpg","button_pressed":"0","trial_type":"image-button-response","trial_index":135,"time_elapsed":423894,"internal_node_id":"0.0-135.0","participant_id":"AQ9Y6WD8O72ZC"},{"rt":1509,"response":"48","trial_type":"image-slider-response","trial_index":136,"time_elapsed":425406,"internal_node_id":"0.0-136.0","participant_id":"AQ9Y6WD8O72ZC"},{"rt":1020,"stimulus":"stimuli/43.jpg","button_pressed":"1","trial_type":"image-button-response","trial_index":137,"time_elapsed":426429,"internal_node_id":"0.0-137.0","participant_id":"AQ9Y6WD8O72ZC"},{"rt":2628,"responses":"{\"Q0\":\"we\"}","trial_type":"survey-text","trial_index":138,"time_elapsed":429059,"internal_node_id":"0.0-138.0-0.0","participant_id":"AQ9Y6WD8O72ZC"},{"rt":null,"stimulus":"<p style=\"font-size: 48px;\">+</p>","key_press":null,"Name":"fixation","trial_type":"html-keyboard-response","trial_index":139,"time_elapsed":429561,"internal_node_id":"0.0-139.0","participant_id":"AQ9Y6WD8O72ZC"},{"rt":null,"stimulus":"stimuli/25.jpg","button_pressed":null,"trial_type":"image-button-response","trial_index":140,"time_elapsed":434565,"internal_node_id":"0.0-140.0","participant_id":"AQ9Y6WD8O72ZC"},{"rt":1141,"stimulus":"stimuli/25.jpg","button_pressed":"0","trial_type":"image-button-response","trial_index":141,"time_elapsed":435707,"internal_node_id":"0.0-141.0","participant_id":"AQ9Y6WD8O72ZC"},{"rt":1485,"response":"36","trial_type":"image-slider-response","trial_index":142,"time_elapsed":437195,"internal_node_id":"0.0-142.0","participant_id":"AQ9Y6WD8O72ZC"},{"rt":1214,"stimulus":"stimuli/25.jpg","button_pressed":"0","trial_type":"image-button-response","trial_index":143,"time_elapsed":438412,"internal_node_id":"0.0-143.0","participant_id":"AQ9Y6WD8O72ZC"},{"rt":null,"stimulus":"<p style=\"font-size: 48px;\">+</p>","key_press":null,"Name":"fixation","trial_type":"html-keyboard-response","trial_index":144,"time_elapsed":438917,"internal_node_id":"0.0-144.0","participant_id":"AQ9Y6WD8O72ZC"},{"rt":null,"stimulus":"stimuli/24.jpg","button_pressed":null,"trial_type":"image-button-response","trial_index":145,"time_elapsed":443922,"internal_node_id":"0.0-145.0","participant_id":"AQ9Y6WD8O72ZC"},{"rt":1068,"stimulus":"stimuli/24.jpg","button_pressed":"0","trial_type":"image-button-response","trial_index":146,"time_elapsed":444995,"internal_node_id":"0.0-146.0","participant_id":"AQ9Y6WD8O72ZC"},{"rt":1613,"response":"36","trial_type":"image-slider-response","trial_index":147,"time_elapsed":446611,"internal_node_id":"0.0-147.0","participant_id":"AQ9Y6WD8O72ZC"},{"rt":869,"stimulus":"stimuli/24.jpg","button_pressed":"1","trial_type":"image-button-response","trial_index":148,"time_elapsed":447483,"internal_node_id":"0.0-148.0","participant_id":"AQ9Y6WD8O72ZC"},{"rt":null,"stimulus":"<p style=\"font-size: 48px;\">+</p>","key_press":null,"Name":"fixation","trial_type":"html-keyboard-response","trial_index":149,"time_elapsed":448989,"internal_node_id":"0.0-149.0","participant_id":"AQ9Y6WD8O72ZC"},{"rt":null,"stimulus":"stimuli/44.jpg","button_pressed":null,"trial_type":"image-button-response","trial_index":150,"time_elapsed":453991,"internal_node_id":"0.0-150.0","participant_id":"AQ9Y6WD8O72ZC"},{"rt":1144,"stimulus":"stimuli/44.jpg","button_pressed":"0","trial_type":"image-button-response","trial_index":151,"time_elapsed":455139,"internal_node_id":"0.0-151.0","participant_id":"AQ9Y6WD8O72ZC"},{"rt":2190,"response":"50","trial_type":"image-slider-response","trial_index":152,"time_elapsed":457332,"internal_node_id":"0.0-152.0","participant_id":"AQ9Y6WD8O72ZC"},{"rt":1108,"stimulus":"stimuli/44.jpg","button_pressed":"1","trial_type":"image-button-response","trial_index":153,"time_elapsed":458443,"internal_node_id":"0.0-153.0","participant_id":"AQ9Y6WD8O72ZC"},{"rt":null,"stimulus":"<p style=\"font-size: 48px;\">+</p>","key_press":null,"Name":"fixation","trial_type":"html-keyboard-response","trial_index":154,"time_elapsed":459948,"internal_node_id":"0.0-154.0","participant_id":"AQ9Y6WD8O72ZC"},{"rt":null,"stimulus":"stimuli/50.jpg","button_pressed":null,"trial_type":"image-button-response","trial_index":155,"time_elapsed":464952,"internal_node_id":"0.0-155.0","participant_id":"AQ9Y6WD8O72ZC"},{"rt":1216,"stimulus":"stimuli/50.jpg","button_pressed":"0","trial_type":"image-button-response","trial_index":156,"time_elapsed":466171,"internal_node_id":"0.0-156.0","participant_id":"AQ9Y6WD8O72ZC"},{"rt":1806,"response":"55","trial_type":"image-slider-response","trial_index":157,"time_elapsed":467980,"internal_node_id":"0.0-157.0","participant_id":"AQ9Y6WD8O72ZC"},{"rt":611,"stimulus":"stimuli/50.jpg","button_pressed":"1","trial_type":"image-button-response","trial_index":158,"time_elapsed":468595,"internal_node_id":"0.0-158.0","participant_id":"AQ9Y6WD8O72ZC"},{"rt":null,"stimulus":"<p style=\"font-size: 48px;\">+</p>","key_press":null,"Name":"fixation","trial_type":"html-keyboard-response","trial_index":159,"time_elapsed":470106,"internal_node_id":"0.0-159.0","participant_id":"AQ9Y6WD8O72ZC"},{"rt":null,"stimulus":"stimuli/47.jpg","button_pressed":null,"trial_type":"image-button-response","trial_index":160,"time_elapsed":475113,"internal_node_id":"0.0-160.0","participant_id":"AQ9Y6WD8O72ZC"},{"rt":41843,"stimulus":"stimuli/47.jpg","button_pressed":"0","trial_type":"image-button-response","trial_index":161,"time_elapsed":516958,"internal_node_id":"0.0-161.0","participant_id":"AQ9Y6WD8O72ZC"},{"rt":2581,"response":"18","trial_type":"image-slider-response","trial_index":162,"time_elapsed":519542,"internal_node_id":"0.0-162.0","participant_id":"AQ9Y6WD8O72ZC"},{"rt":1197,"stimulus":"stimuli/47.jpg","button_pressed":"0","trial_type":"image-button-response","trial_index":163,"time_elapsed":520742,"internal_node_id":"0.0-163.0","participant_id":"AQ9Y6WD8O72ZC"},{"rt":3862,"stimulus":"stimuli/ins/Slide8.JPG","button_pressed":"0","trial_type":"image-button-response","trial_index":164,"time_elapsed":524606,"internal_node_id":"0.0-164.0","participant_id":"AQ9Y6WD8O72ZC"}]